timestamp_iso,session_ms,sample_idx,acc_x,acc_y,acc_z,useracc_x,useracc_y,useracc_z,gravity_x,gravity_y,gravity_z,gyro_x,gyro_y,gyro_z,mag_x,mag_y,mag_z,yaw_deg,pitch_deg,roll_deg,pressure_hpa,label
2025-10-23T12:08:14.441720,50,0,-3.014300,4.956297,8.940248,0.833140,0.206650,1.271586,-3.847440,4.749647,7.668662,0.209450,0.242284,-0.047953,26.760000,-31.559999,-10.260000,40.086,16.430,29.003,,walk
2025-10-23T12:08:14.491423,100,1,-3.509900,4.953903,7.391200,0.545545,0.256385,-0.202023,-4.055445,4.697518,7.593223,-0.555353,-1.061913,0.077274,26.760000,-31.559999,-10.260000,36.150,21.528,33.832,,walk
2025-10-23T12:08:14.541435,150,2,-3.509900,4.953903,7.391200,0.545545,0.256385,-0.202023,-4.055445,4.697518,7.593223,-0.555353,-1.061913,0.077274,26.760000,-31.559999,-10.260000,36.150,21.528,33.832,,walk
2025-10-23T12:08:14.591393,200,3,-3.509900,4.953903,7.391200,0.545545,0.256385,-0.202023,-4.055445,4.697518,7.593223,-0.555353,-1.061913,0.077274,26.939999,-30.240000,-13.799999,31.945,21.528,33.832,,walk
2025-10-23T12:08:14.641353,250,4,-2.894590,4.228160,9.371204,0.066030,0.302914,0.886068,-2.960620,3.925247,8.485136,0.476399,-0.710055,-0.977690,26.939999,-30.240000,-13.799999,40.716,15.725,24.284,,walk
2025-10-23T12:08:14.691460,300,5,-2.894590,4.228160,9.371204,0.066030,0.302914,0.886068,-2.960620,3.925247,8.485136,0.476399,-0.710055,-0.977690,26.939999,-30.240000,-13.799999,40.716,15.725,24.284,,walk
2025-10-23T12:08:14.741382,350,6,-2.894590,4.228160,9.371204,0.066030,0.302914,0.886068,-2.960620,3.925247,8.485136,0.476399,-0.710055,-0.977690,26.939999,-30.240000,-13.799999,40.716,15.725,24.284,,walk
2025-10-23T12:08:14.792207,401,7,-2.894590,4.228160,9.371204,0.066030,0.302914,0.886068,-2.960620,3.925247,8.485136,0.476399,-0.710055,-0.977690,27.719999,-27.599998,-19.799999,33.725,15.725,24.284,,walk
2025-10-23T12:08:14.841770,450,8,-2.343924,2.372654,11.882722,-1.293736,0.344777,2.345678,-1.050188,2.027877,9.537044,-2.157042,-3.031953,1.376585,27.719999,-27.599998,-19.799999,43.462,10.948,11.292,,walk
2025-10-23T12:08:14.891498,500,9,-2.343924,2.372654,11.882722,-1.293736,0.344777,2.345678,-1.050188,2.027877,9.537044,-2.157042,-3.031953,1.376585,27.719999,-27.599998,-19.799999,43.462,10.948,11.292,,walk
2025-10-23T12:08:14.941825,550,10,-2.343924,2.372654,11.882722,-1.293736,0.344777,2.345678,-1.050188,2.027877,9.537044,-2.157042,-3.031953,1.376585,27.719999,-27.599998,-19.799999,43.462,10.948,11.292,,walk
2025-10-23T12:08:14.991390,600,11,1.783680,-1.283292,-0.672771,0.547971,-3.781817,-10.074939,1.235710,2.498525,9.402168,0.857578,-1.948278,0.787100,16.920000,-28.859999,-30.959999,-12.579,-50.912,-117.666,,walk
2025-10-23T12:08:15.042142,651,12,1.783680,-1.283292,-0.672771,0.547971,-3.781817,-10.074939,1.235710,2.498525,9.402168,0.857578,-1.948278,0.787100,16.920000,-28.859999,-30.959999,-12.579,-50.912,-117.666,,walk
2025-10-23T12:08:15.091590,700,13,1.783680,-1.283292,-0.672771,0.547971,-3.781817,-10.074939,1.235710,2.498525,9.402168,0.857578,-1.948278,0.787100,16.920000,-28.859999,-30.959999,-12.579,-50.912,-117.666,,walk
2025-10-23T12:08:15.142690,751,14,1.783680,-1.283292,-0.672771,0.547971,-3.781817,-10.074939,1.235710,2.498525,9.402168,0.857578,-1.948278,0.787100,16.920000,-28.859999,-30.959999,-12.579,-50.912,-117.666,,walk
2025-10-23T12:08:15.191785,800,15,7.132626,-13.685556,1.989582,-1.730737,-11.874079,-1.795856,8.863363,-1.811478,3.785437,-0.308563,-7.461948,7.075346,-19.379999,-26.400000,-27.539999,97.123,-27.283,-81.728,,walk
2025-10-23T12:08:15.242918,852,16,7.132626,-13.685556,1.989582,-1.730737,-11.874079,-1.795856,8.863363,-1.811478,3.785437,-0.308563,-7.461948,7.075346,-19.379999,-26.400000,-27.539999,97.123,-27.283,-81.728,,walk
2025-10-23T12:08:15.292187,901,17,7.132626,-13.685556,1.989582,-1.730737,-11.874079,-1.795856,8.863363,-1.811478,3.785437,-0.308563,-7.461948,7.075346,-19.379999,-26.400000,-27.539999,97.123,-27.283,-81.728,,walk
2025-10-23T12:08:15.342686,951,18,7.132626,-13.685556,1.989582,-1.730737,-11.874079,-1.795856,8.863363,-1.811478,3.785437,-0.308563,-7.461948,7.075346,-19.379999,-26.400000,-27.539999,97.123,-27.283,-81.728,,walk
2025-10-23T12:08:15.392060,1001,19,18.677767,-5.344158,-14.830284,13.147549,2.483200,-16.908554,5.530218,-7.827357,2.078270,1.104368,1.314964,-0.887893,-36.059998,9.660000,-9.840000,127.404,-49.836,-160.183,,walk
2025-10-23T12:08:15.442186,1051,20,18.677767,-5.344158,-14.830284,13.147549,2.483200,-16.908554,5.530218,-7.827357,2.078270,1.104368,1.314964,-0.887893,-36.059998,9.660000,-9.840000,127.404,-49.836,-160.183,,walk
2025-10-23T12:08:15.491739,1100,21,18.677767,-5.344158,-14.830284,13.147549,2.483200,-16.908554,5.530218,-7.827357,2.078270,1.104368,1.314964,-0.887893,-36.059998,9.660000,-9.840000,127.404,-49.836,-160.183,,walk
2025-10-23T12:08:15.542022,1151,22,3.845088,-5.696105,3.162740,-3.662542,-0.171127,0.116365,7.507630,-5.524978,3.046376,1.552132,-0.735711,-0.239765,-36.059998,9.660000,-9.840000,144.269,-30.548,-60.959,,walk
2025-10-23T12:08:15.592143,1201,23,3.845088,-5.696105,3.162740,-3.662542,-0.171127,0.116365,7.507630,-5.524978,3.046376,1.552132,-0.735711,-0.239765,-36.840000,-4.440000,-14.520000,129.574,-30.548,-60.959,,walk
2025-10-23T12:08:15.642201,1251,24,3.845088,-5.696105,3.162740,-3.662542,-0.171127,0.116365,7.507630,-5.524978,3.046376,1.552132,-0.735711,-0.239765,-36.840000,-4.440000,-14.520000,129.574,-30.548,-60.959,,walk
2025-10-23T12:08:15.691836,1300,25,3.845088,-5.696105,3.162740,-3.662542,-0.171127,0.116365,7.507630,-5.524978,3.046376,1.552132,-0.735711,-0.239765,-36.840000,-4.440000,-14.520000,129.574,-30.548,-60.959,,walk
2025-10-23T12:08:15.741675,1350,26,7.367258,-10.060735,4.505888,-0.606920,-5.417856,1.185268,7.974178,-4.642879,3.320620,-1.097190,0.091401,0.923323,-36.840000,-4.440000,-14.520000,125.599,-33.755,-65.874,,walk
2025-10-23T12:08:15.792143,1401,27,7.367258,-10.060735,4.505888,-0.606920,-5.417856,1.185268,7.974178,-4.642879,3.320620,-1.097190,0.091401,0.923323,-38.219997,-8.040000,-15.839999,123.519,-33.755,-65.874,,walk
2025-10-23T12:08:15.843111,1452,28,7.367258,-10.060735,4.505888,-0.606920,-5.417856,1.185268,7.974178,-4.642879,3.320620,-1.097190,0.091401,0.923323,-38.219997,-8.040000,-15.839999,123.519,-33.755,-65.874,,walk
2025-10-23T12:08:15.892048,1501,29,5.432743,-5.813421,2.839523,0.002096,-4.922820,0.565523,5.430647,-0.890601,2.274000,0.111101,1.054124,-0.125533,-38.219997,-8.040000,-15.839999,117.594,-40.020,-63.967,,walk
2025-10-23T12:08:15.942190,1551,30,5.432743,-5.813421,2.839523,0.002096,-4.922820,0.565523,5.430647,-0.890601,2.274000,0.111101,1.054124,-0.125533,-38.219997,-8.040000,-15.839999,117.594,-40.020,-63.967,,walk
2025-10-23T12:08:15.992590,1601,31,5.432743,-5.813421,2.839523,0.002096,-4.922820,0.565523,5.430647,-0.890601,2.274000,0.111101,1.054124,-0.125533,-36.360001,-8.160000,-19.980000,111.363,-40.020,-63.967,,walk
2025-10-23T12:08:16.042900,1652,32,5.432743,-5.813421,2.839523,0.002096,-4.922820,0.565523,5.430647,-0.890601,2.274000,0.111101,1.054124,-0.125533,-36.360001,-8.160000,-19.980000,111.363,-40.020,-63.967,,walk
2025-10-23T12:08:16.091744,1700,33,11.700763,-1.994370,5.569212,4.796339,2.522640,0.268666,6.904424,-4.517010,5.300546,1.456226,-2.674597,0.499382,-36.360001,-8.160000,-19.980000,86.234,-63.180,-19.703,,walk
2025-10-23T12:08:16.142131,1751,34,11.700763,-1.994370,5.569212,4.796339,2.522640,0.268666,6.904424,-4.517010,5.300546,1.456226,-2.674597,0.499382,-36.360001,-8.160000,-19.980000,86.234,-63.180,-19.703,,walk
2025-10-23T12:08:16.191704,1800,35,11.700763,-1.994370,5.569212,4.796339,2.522640,0.268666,6.904424,-4.517010,5.300546,1.456226,-2.674597,0.499382,-38.459999,-10.440000,-13.080000,103.648,-63.180,-19.703,,walk
2025-10-23T12:08:16.243638,1852,36,11.700763,-1.994370,5.569212,4.796339,2.522640,0.268666,6.904424,-4.517010,5.300546,1.456226,-2.674597,0.499382,-38.459999,-10.440000,-13.080000,103.648,-63.180,-19.703,,walk
2025-10-23T12:08:16.292757,1901,37,1.446098,-1.900996,-0.181959,-6.347738,2.742107,-3.905937,7.793836,-4.643104,3.723978,-1.946904,0.635071,1.612990,-38.459999,-10.440000,-13.080000,125.011,-37.135,-95.468,,walk
2025-10-23T12:08:16.342762,1951,38,1.446098,-1.900996,-0.181959,-6.347738,2.742107,-3.905937,7.793836,-4.643104,3.723978,-1.946904,0.635071,1.612990,-38.459999,-10.440000,-13.080000,125.011,-37.135,-95.468,,walk
2025-10-23T12:08:16.392087,2001,39,1.446098,-1.900996,-0.181959,-6.347738,2.742107,-3.905937,7.793836,-4.643104,3.723978,-1.946904,0.635071,1.612990,-39.840000,-3.960000,-6.660000,133.877,-37.135,-95.468,,walk
2025-10-23T12:08:16.443111,2052,40,-1.393425,-13.893851,-0.172383,-8.744718,-7.425229,0.361884,7.351292,-6.468622,-0.534266,1.136133,-2.152307,0.883617,-39.840000,-3.960000,-6.660000,176.306,5.727,-90.711,,walk
2025-10-23T12:08:16.492233,2101,41,-1.393425,-13.893851,-0.172383,-8.744718,-7.425229,0.361884,7.351292,-6.468622,-0.534266,1.136133,-2.152307,0.883617,-39.840000,-3.960000,-6.660000,176.306,5.727,-90.711,,walk
2025-10-23T12:08:16.542835,2151,42,-1.393425,-13.893851,-0.172383,-8.744718,-7.425229,0.361884,7.351292,-6.468622,-0.534266,1.136133,-2.152307,0.883617,-39.840000,-3.960000,-6.660000,176.306,5.727,-90.711,,walk
2025-10-23T12:08:16.592630,2201,43,-1.393425,-13.893851,-0.172383,-8.744718,-7.425229,0.361884,7.351292,-6.468622,-0.534266,1.136133,-2.152307,0.883617,-37.259998,4.860000,10.559999,-158.534,5.727,-90.711,,walk
2025-10-23T12:08:16.642907,2252,44,10.379164,-13.110948,-1.125275,7.707944,-3.998581,1.324058,2.671220,-9.112367,-2.449333,-0.132023,1.561753,4.118759,-37.259998,4.860000,10.559999,157.067,-38.264,-94.906,,walk
2025-10-23T12:08:16.692237,2301,45,10.379164,-13.110948,-1.125275,7.707944,-3.998581,1.324058,2.671220,-9.112367,-2.449333,-0.132023,1.561753,4.118759,-37.259998,4.860000,10.559999,157.067,-38.264,-94.906,,walk
2025-10-23T12:08:16.742316,2351,46,10.379164,-13.110948,-1.125275,7.707944,-3.998581,1.324058,2.671220,-9.112367,-2.449333,-0.132023,1.561753,4.118759,-37.259998,4.860000,10.559999,157.067,-38.264,-94.906,,walk
2025-10-23T12:08:16.792146,2401,47,10.379164,-13.110948,-1.125275,7.707944,-3.998581,1.324058,2.671220,-9.112367,-2.449333,-0.132023,1.561753,4.118759,-35.219997,19.020000,9.840000,155.107,-38.264,-94.906,,walk
2025-10-23T12:08:16.841810,2450,48,-0.320823,-8.564359,-4.450821,-2.225899,0.808961,-2.287121,1.905076,-9.373320,-2.163700,0.115988,-0.925690,0.306349,-35.219997,19.020000,9.840000,-178.368,1.904,-117.460,,walk
2025-10-23T12:08:16.892211,2501,49,-0.320823,-8.564359,-4.450821,-2.225899,0.808961,-2.287121,1.905076,-9.373320,-2.163700,0.115988,-0.925690,0.306349,-35.219997,19.020000,9.840000,-178.368,1.904,-117.460,,walk
2025-10-23T12:08:16.942357,2551,50,-0.320823,-8.564359,-4.450821,-2.225899,0.808961,-2.287121,1.905076,-9.373320,-2.163700,0.115988,-0.925690,0.306349,-35.219997,19.020000,9.840000,-178.368,1.904,-117.460,,walk
2025-10-23T12:08:16.992359,2601,51,-3.189077,-16.886904,4.702212,-4.892344,-7.347579,6.208881,1.703267,-9.539325,-1.506669,1.678581,1.064509,0.900110,-34.680000,16.320000,12.900000,-144.627,10.311,-74.440,,walk
2025-10-23T12:08:17.041969,2651,52,-3.189077,-16.886904,4.702212,-4.892344,-7.347579,6.208881,1.703267,-9.539325,-1.506669,1.678581,1.064509,0.900110,-34.680000,16.320000,12.900000,-144.627,10.311,-74.440,,walk
2025-10-23T12:08:17.091649,2700,53,-3.189077,-16.886904,4.702212,-4.892344,-7.347579,6.208881,1.703267,-9.539325,-1.506669,1.678581,1.064509,0.900110,-34.680000,16.320000,12.900000,-144.627,10.311,-74.440,,walk
2025-10-23T12:08:17.141702,2750,54,-3.189077,-16.886904,4.702212,-4.892344,-7.347579,6.208881,1.703267,-9.539325,-1.506669,1.678581,1.064509,0.900110,-34.680000,16.320000,12.900000,-144.627,10.311,-74.440,,walk
2025-10-23T12:08:17.191575,2800,55,-1.477222,-9.024046,0.782904,0.177925,0.559063,2.045630,-1.655148,-9.583109,-1.262726,1.326112,-0.888427,0.143248,-26.580000,26.400000,14.820000,-138.477,9.263,-85.042,,walk
2025-10-23T12:08:17.242100,2851,56,-1.477222,-9.024046,0.782904,0.177925,0.559063,2.045630,-1.655148,-9.583109,-1.262726,1.326112,-0.888427,0.143248,-26.580000,26.400000,14.820000,-138.477,9.263,-85.042,,walk
2025-10-23T12:08:17.292306,2901,57,-1.477222,-9.024046,0.782904,0.177925,0.559063,2.045630,-1.655148,-9.583109,-1.262726,1.326112,-0.888427,0.143248,-26.580000,26.400000,14.820000,-138.477,9.263,-85.042,,walk
2025-10-23T12:08:17.341778,2950,58,-3.016694,-8.001721,2.367866,-1.078211,1.478540,0.775137,-1.938483,-9.480262,1.592729,0.597350,1.588021,0.233656,-26.580000,26.400000,14.820000,-124.062,19.875,-73.515,,walk
2025-10-23T12:08:17.392782,3001,59,-3.016694,-8.001721,2.367866,-1.078211,1.478540,0.775137,-1.938483,-9.480262,1.592729,0.597350,1.588021,0.233656,-27.119999,32.759998,7.740000,-132.323,19.875,-73.515,,walk
2025-10-23T12:08:17.441796,3050,60,-3.016694,-8.001721,2.367866,-1.078211,1.478540,0.775137,-1.938483,-9.480262,1.592729,0.597350,1.588021,0.233656,-27.119999,32.759998,7.740000,-132.323,19.875,-73.515,,walk
2025-10-23T12:08:17.491801,3100,61,-3.016694,-8.001721,2.367866,-1.078211,1.478540,0.775137,-1.938483,-9.480262,1.592729,0.597350,1.588021,0.233656,-27.119999,32.759998,7.740000,-132.323,19.875,-73.515,,walk
2025-10-23T12:08:17.542599,3151,62,0.600945,-12.337621,-3.181894,3.520987,-3.314818,-5.678415,-2.920042,-9.022802,2.496521,-0.777708,1.120709,-0.581849,-27.119999,32.759998,7.740000,175.975,-2.700,-104.462,,walk
2025-10-23T12:08:17.591747,3200,63,0.600945,-12.337621,-3.181894,3.520987,-3.314818,-5.678415,-2.920042,-9.022802,2.496521,-0.777708,1.120709,-0.581849,-28.619999,35.639999,-3.780000,153.991,-2.700,-104.462,,walk
2025-10-23T12:08:17.642042,3251,64,0.600945,-12.337621,-3.181894,3.520987,-3.314818,-5.678415,-2.920042,-9.022802,2.496521,-0.777708,1.120709,-0.581849,-28.619999,35.639999,-3.780000,153.991,-2.700,-104.462,,walk
2025-10-23T12:08:17.691526,3300,65,-2.238579,-8.980949,-5.545270,-0.227148,0.556614,-4.468596,-2.011430,-9.537563,-1.076674,-1.135675,5.316131,-1.030224,-28.619999,35.639999,-3.780000,149.701,11.974,-121.693,,walk
2025-10-23T12:08:17.742814,3351,66,-2.238579,-8.980949,-5.545270,-0.227148,0.556614,-4.468596,-2.011430,-9.537563,-1.076674,-1.135675,5.316131,-1.030224,-28.619999,35.639999,-3.780000,149.701,11.974,-121.693,,walk
2025-10-23T12:08:17.791746,3400,67,-2.238579,-8.980949,-5.545270,-0.227148,0.556614,-4.468596,-2.011430,-9.537563,-1.076674,-1.135675,5.316131,-1.030224,-30.779999,24.660000,0.900000,167.247,11.974,-121.693,,walk
2025-10-23T12:08:17.842302,3451,68,-2.238579,-8.980949,-5.545270,-0.227148,0.556614,-4.468596,-2.011430,-9.537563,-1.076674,-1.135675,5.316131,-1.030224,-30.779999,24.660000,0.900000,167.247,11.974,-121.693,,walk
2025-10-23T12:08:17.891806,3500,69,-3.682282,-5.277120,-0.237026,-3.295352,4.075244,2.687604,-0.386930,-9.352364,-2.924630,-0.769156,-1.326418,-0.146302,-30.779999,24.660000,0.900000,-145.164,34.880,-92.572,,walk
2025-10-23T12:08:17.942446,3551,70,-3.682282,-5.277120,-0.237026,-3.295352,4.075244,2.687604,-0.386930,-9.352364,-2.924630,-0.769156,-1.326418,-0.146302,-30.779999,24.660000,0.900000,-145.164,34.880,-92.572,,walk
2025-10-23T12:08:17.992386,3601,71,-3.682282,-5.277120,-0.237026,-3.295352,4.075244,2.687604,-0.386930,-9.352364,-2.924630,-0.769156,-1.326418,-0.146302,-27.900000,19.500000,8.820000,-128.676,34.880,-92.572,,walk
2025-10-23T12:08:18.042747,3651,72,-3.682282,-5.277120,-0.237026,-3.295352,4.075244,2.687604,-0.386930,-9.352364,-2.924630,-0.769156,-1.326418,-0.146302,-27.900000,19.500000,8.820000,-128.676,34.880,-92.572,,walk
2025-10-23T12:08:18.091771,3700,73,-1.862689,-6.086360,2.942474,-1.285742,3.311841,5.683052,-0.576946,-9.398201,-2.740578,1.940032,-1.068022,0.259312,-27.900000,19.500000,8.820000,-137.103,15.405,-64.198,,walk
2025-10-23T12:08:18.141783,3750,74,-1.862689,-6.086360,2.942474,-1.285742,3.311841,5.683052,-0.576946,-9.398201,-2.740578,1.940032,-1.068022,0.259312,-27.900000,19.500000,8.820000,-137.103,15.405,-64.198,,walk
2025-10-23T12:08:18.191852,3800,75,-1.862689,-6.086360,2.942474,-1.285742,3.311841,5.683052,-0.576946,-9.398201,-2.740578,1.940032,-1.068022,0.259312,-20.820000,28.799999,1.500000,-136.276,15.405,-64.198,,walk
2025-10-23T12:08:18.241876,3850,76,-3.857059,-11.027992,2.528277,-1.784334,-1.461432,3.123765,-2.072725,-9.566560,-0.595488,0.933937,0.112781,0.091935,-20.820000,28.799999,1.500000,-143.224,18.825,-77.088,,walk
2025-10-23T12:08:18.292211,3901,77,-3.857059,-11.027992,2.528277,-1.784334,-1.461432,3.123765,-2.072725,-9.566560,-0.595488,0.933937,0.112781,0.091935,-20.820000,28.799999,1.500000,-143.224,18.825,-77.088,,walk
2025-10-23T12:08:18.341748,3950,78,-3.857059,-11.027992,2.528277,-1.784334,-1.461432,3.123765,-2.072725,-9.566560,-0.595488,0.933937,0.112781,0.091935,-20.820000,28.799999,1.500000,-143.224,18.825,-77.088,,walk
2025-10-23T12:08:18.391840,4000,79,-3.857059,-11.027992,2.528277,-1.784334,-1.461432,3.123765,-2.072725,-9.566560,-0.595488,0.933937,0.112781,0.091935,-16.199999,32.939999,-4.020000,-152.257,18.825,-77.088,,walk
2025-10-23T12:08:18.442834,4051,80,-1.194707,-10.269031,0.452504,1.248397,-0.873797,-0.937095,-2.443104,-9.395233,1.389599,1.227763,-0.430278,0.464563,-16.199999,32.939999,-4.020000,177.680,6.630,-87.477,,walk
2025-10-23T12:08:18.491675,4100,81,-1.130063,-10.829273,-0.167594,1.248397,-0.873797,-0.937095,-2.378460,-9.955476,0.769501,1.227763,-0.430278,0.464563,-16.199999,32.939999,-4.020000,170.296,5.957,-90.887,,walk
2025-10-23T12:08:18.542575,4151,82,-0.581791,-12.383110,-0.550666,1.248397,-0.873797,-0.937095,-1.830188,-11.509313,0.386429,1.227763,-0.430278,0.464563,-16.199999,32.939999,-4.020000,163.929,2.687,-92.546,,walk
2025-10-23T12:08:18.592409,4201,83,-1.836353,-13.003209,-4.129998,1.248521,-4.026054,-6.592571,-3.084874,-8.977155,2.462574,-0.530307,0.227624,-0.186008,-9.300000,37.799999,-12.599999,116.185,7.666,-107.621,,walk
2025-10-23T12:08:18.641592,4250,84,-1.063026,-10.573094,-7.283461,1.248521,-4.026054,-6.592571,-2.311547,-6.547040,-0.690889,-0.530307,0.227624,-0.186008,-9.300000,37.799999,-12.599999,108.309,4.733,-124.562,,walk
2025-10-23T12:08:18.691543,4300,85,-2.820370,-14.727333,4.917990,1.248521,-4.026054,-6.592571,-4.068891,-10.701279,11.510561,-0.530307,0.227624,-0.186008,-9.300000,37.799999,-12.599999,-171.075,10.295,-71.534,,walk
2025-10-23T12:08:18.742293,4351,86,-7.115867,-14.219463,9.165303,1.248521,-4.026054,-6.592571,-8.364388,-10.193409,15.757874,-0.530307,0.227624,-0.186008,-9.300000,37.799999,-12.599999,-134.390,22.813,-57.196,,walk
2025-10-23T12:08:18.791660,4400,87,2.130840,-10.120590,-4.031836,1.452686,-0.154148,-2.705602,0.678153,-9.966442,-1.326233,0.096440,5.114546,-1.095587,-8.880000,44.099998,0.960000,117.590,-11.067,-111.721,,walk
2025-10-23T12:08:18.841356,4450,88,-1.977611,-6.732794,0.816423,1.452686,-0.154148,-2.705602,-3.430297,-6.578646,3.522025,0.096440,5.114546,-1.095587,-8.880000,44.099998,0.960000,-133.529,16.256,-83.086,,walk
2025-10-23T12:08:18.891455,4500,89,-3.280056,-5.296273,2.039860,1.452686,-0.154148,-2.705602,-4.732743,-5.142125,4.745462,0.096440,5.114546,-1.095587,-8.880000,44.099998,0.960000,-109.137,30.025,-68.936,,walk
2025-10-23T12:08:18.941975,4551,90,-4.532224,-3.847482,0.131681,1.452686,-0.154148,-2.705602,-5.984910,-3.693334,2.837283,0.096440,5.114546,-1.095587,-8.880000,44.099998,0.960000,-119.429,49.655,-88.040,,walk
2025-10-23T12:08:18.991983,4601,91,-1.453280,-5.451897,-1.209072,-4.048086,4.924981,3.233934,2.594805,-10.376877,-4.443006,-0.607276,-1.325196,-0.394314,-19.439999,41.219997,10.260000,-161.124,14.587,-102.504,,walk
2025-10-23T12:08:19.041808,4650,92,0.031125,-10.826880,-11.382334,-4.048086,4.924981,3.233934,4.079210,-15.751860,-14.616268,-0.607276,-1.325196,-0.394314,-19.439999,41.219997,10.260000,130.454,-0.114,-136.433,,walk
2025-10-23T12:08:19.091764,4700,93,1.833959,-17.449541,-7.817368,-4.048086,4.924981,3.233934,5.882044,-22.374522,-11.051302,-0.607276,-1.325196,-0.394314,-19.439999,41.219997,10.260000,155.592,-5.479,-114.132,,walk
2025-10-23T12:08:19.141921,4751,94,-0.071826,-7.439084,-1.414973,0.873248,1.912604,1.381980,-0.945074,-9.351688,-2.796953,1.186224,-0.498695,-0.002138,-19.439999,41.219997,10.260000,-172.467,0.543,-100.769,,walk
2025-10-23T12:08:19.191477,4800,95,-0.876278,-19.412786,-11.554717,0.873248,1.912604,1.381980,-1.749525,-21.325391,-12.936697,1.186224,-0.498695,-0.002138,-17.459999,45.299999,15.360000,150.849,2.221,-120.762,,walk
2025-10-23T12:08:19.241643,4850,96,-4.953903,-1.865083,1.783680,0.873248,1.912604,1.381980,-5.827150,-3.777687,0.401701,1.186224,-0.498695,-0.002138,-17.459999,45.299999,15.360000,-83.347,62.483,-46.278,,walk
2025-10-23T12:08:19.292049,4901,97,-3.462016,-9.155726,1.594538,0.873248,1.912604,1.381980,-4.335263,-11.068331,0.212559,1.186224,-0.498695,-0.002138,-17.459999,45.299999,15.360000,-111.477,20.431,-80.121,,walk
2025-10-23T12:08:19.341648,4950,98,-3.775656,-11.396699,2.774880,-1.769597,-2.645768,3.591765,-2.006059,-8.750931,-0.816885,0.640110,-1.318476,0.284969,-17.459999,45.299999,15.360000,-111.580,17.843,-76.316,,walk
2025-10-23T12:08:19.391724,5000,99,-1.577779,-6.546047,0.363919,-1.769597,-2.645768,3.591765,0.191818,-3.900279,-3.227846,0.640110,-1.318476,0.284969,-11.460000,49.320000,12.000000,-116.031,13.531,-86.818,,walk
2025-10-23T12:08:19.441607,5050,100,-2.767697,-9.701605,-0.234632,-1.769597,-2.645768,3.591765,-0.998100,-7.055837,-3.826397,0.640110,-1.318476,0.284969,-11.460000,49.320000,12.000000,-119.819,15.918,-91.385,,walk
2025-10-23T12:08:19.491624,5100,101,-2.621651,-9.316138,0.483629,-0.163686,0.088908,-0.810017,-2.457965,-9.405046,1.293646,0.843529,0.299706,0.413250,-11.460000,49.320000,12.000000,-114.367,15.697,-87.028,,walk
2025-10-23T12:08:19.542361,5151,102,-1.960851,-9.292196,1.328782,-0.163686,0.088908,-0.810017,-1.797165,-9.381104,2.138799,0.843529,0.299706,0.413250,-11.460000,49.320000,12.000000,-112.721,11.799,-81.862,,walk
2025-10-23T12:08:19.591913,5201,103,-1.960851,-11.499650,0.179565,-0.163686,0.088908,-0.810017,-1.797165,-11.588558,0.989582,0.843529,0.299706,0.413250,-9.660000,53.099998,1.800000,-155.373,9.676,-89.105,,walk
2025-10-23T12:08:19.641956,5251,104,-0.332794,-13.187562,-2.722207,-0.163686,0.088908,-0.810017,-0.169108,-13.276470,-1.912190,0.843529,0.299706,0.413250,-9.660000,53.099998,1.800000,137.726,1.416,-101.663,,walk
2025-10-23T12:08:19.691678,5300,105,3.019088,-12.579435,-7.020099,4.613931,-3.089200,-7.692674,-1.594842,-9.490235,0.672575,-0.941420,1.315575,-0.330784,-9.660000,53.099998,1.800000,110.649,-11.837,-119.164,,walk
2025-10-23T12:08:19.741696,5350,106,-2.506729,-14.583382,-2.794033,4.613931,-3.089200,-7.692674,-7.120660,-11.494182,4.898640,-0.941420,1.315575,-0.330784,-9.660000,53.099998,1.800000,144.137,9.582,-100.846,,walk
2025-10-23T12:08:19.791596,5400,107,-6.407183,-14.511556,9.198822,4.613931,-3.089200,-7.692674,-11.021114,-11.422356,16.891496,-0.941420,1.315575,-0.330784,-13.620000,50.340000,6.720000,-106.011,20.451,-57.630,,walk
2025-10-23T12:08:19.841740,5450,108,-1.549049,-7.910742,-6.895600,0.070188,1.610835,-5.196380,-1.619236,-9.521577,-1.699220,-1.194318,4.289267,-1.684461,-13.620000,50.340000,6.720000,115.184,8.397,-131.078,,walk
2025-10-23T12:08:19.891728,5500,109,0.562637,-8.059182,1.221043,0.070188,1.610835,-5.196380,0.492450,-9.670017,6.417423,-1.194318,4.289267,-1.684461,-13.620000,50.340000,6.720000,-136.697,-3.949,-81.385,,walk
2025-10-23T12:08:19.941685,5550,110,-2.621651,-6.694487,1.431733,0.070188,1.610835,-5.196380,-2.691839,-8.305322,6.628113,-1.194318,4.289267,-1.684461,-13.620000,50.340000,6.720000,-115.707,20.955,-77.928,,walk
2025-10-23T12:08:19.992013,5601,111,-4.917990,-2.703054,0.404620,0.070188,1.610835,-5.196380,-4.988177,-4.313889,5.601000,-1.194318,4.289267,-1.684461,-26.580000,34.680000,16.020000,-88.255,60.937,-81.487,,walk
2025-10-23T12:08:20.042192,5651,112,-3.483563,-4.891354,-0.653617,-3.747729,5.542485,2.956266,0.264165,-10.433839,-3.609883,-0.769156,-1.393613,0.076053,-26.580000,34.680000,16.020000,-117.890,35.219,-97.611,,walk
2025-10-23T12:08:20.092030,5701,113,-1.747767,-7.520487,-3.414132,-3.747729,5.542485,2.956266,1.999961,-13.062972,-6.370397,-0.769156,-1.393613,0.076053,-26.580000,34.680000,16.020000,-167.702,11.948,-114.417,,walk
2025-10-23T12:08:20.142177,5751,114,5.624279,-17.815853,-18.203714,-3.747729,5.542485,2.956266,9.372008,-23.358338,-21.159980,-0.769156,-1.393613,0.076053,-26.580000,34.680000,16.020000,148.741,-12.452,-135.617,,walk
2025-10-23T12:08:20.191658,5800,115,0.742203,-4.857835,-0.450110,-3.747729,5.542485,2.956266,4.489931,-10.400321,-3.406376,-0.769156,-1.393613,0.076053,-20.100000,30.660000,23.279999,-143.845,-8.650,-95.294,,walk
2025-10-23T12:08:20.241428,5850,116,-8.425495,-21.976976,2.920926,-1.113020,3.514765,6.651158,-7.312475,-25.491741,-3.730232,2.039603,-1.445536,-0.242819,-20.100000,30.660000,23.279999,-107.837,20.809,-82.429,,walk
2025-10-23T12:08:20.291598,5900,117,-6.359299,-6.268319,0.351948,-1.113020,3.514765,6.651158,-5.246279,-9.783084,-6.299211,2.039603,-1.445536,-0.242819,-20.100000,30.660000,23.279999,-85.674,45.368,-86.786,,walk
2025-10-23T12:08:20.341719,5950,118,-4.848258,-1.082179,0.572214,-1.113020,3.514765,6.651158,-3.735238,-4.596944,-6.078944,2.039603,-1.445536,-0.242819,-20.100000,30.660000,23.279999,-64.252,75.829,-62.132,,walk
2025-10-23T12:08:20.391959,6001,119,-4.235343,-11.425429,2.590526,-1.735095,-1.955823,3.085912,-2.500248,-9.469606,-0.495386,1.158124,0.283823,0.152411,-15.839999,36.000000,18.059999,-106.387,19.876,-77.225,,walk
2025-10-23T12:08:20.441678,6050,120,-2.078167,-6.771101,0.541090,-1.735095,-1.955823,3.085912,-0.343072,-4.815279,-2.544823,1.158124,0.283823,0.152411,-15.839999,36.000000,18.059999,-111.767,17.011,-85.431,,walk
2025-10-23T12:08:20.492119,6101,121,-2.695871,-7.788638,0.277727,-1.735095,-1.955823,3.085912,-0.960776,-5.832815,-2.808185,1.158124,0.283823,0.152411,-15.839999,36.000000,18.059999,-111.084,19.081,-87.958,,walk
2025-10-23T12:08:20.542386,6151,122,-2.736573,-10.649709,1.613692,-1.735095,-1.955823,3.085912,-1.001477,-8.693886,-1.472220,1.158124,0.283823,0.152411,-15.839999,36.000000,18.059999,-112.325,14.255,-81.384,,walk
2025-10-23T12:08:20.591422,6200,123,-1.848324,-9.569923,-0.562637,1.142802,0.290801,-1.046034,-2.991126,-9.860724,0.483397,1.454394,-0.666072,0.283136,-10.980000,38.759998,12.240000,-125.656,10.913,-93.365,,walk
2025-10-23T12:08:20.641485,6250,124,-2.281674,-11.470920,-0.928950,1.142802,0.290801,-1.046034,-3.424476,-11.761721,0.117084,1.454394,-0.666072,0.283136,-10.980000,38.759998,12.240000,-127.417,11.214,-94.630,,walk
2025-10-23T12:08:20.691613,6300,125,-0.675165,-11.466131,-1.869871,1.142802,0.290801,-1.046034,-1.817967,-11.756932,-0.823837,1.454394,-0.666072,0.283136,-10.980000,38.759998,12.240000,-147.821,3.326,-99.262,,walk
2025-10-23T12:08:20.741394,6350,126,-1.240196,-13.297695,0.148441,1.142802,0.290801,-1.046034,-2.382999,-13.588496,1.194475,1.454394,-0.666072,0.283136,-10.980000,38.759998,12.240000,-125.688,5.328,-89.360,,walk
2025-10-23T12:08:20.791406,6400,127,-4.244920,-12.651261,-6.277896,4.291925,-4.230523,-5.322097,-8.536845,-8.420738,-0.955799,-1.576720,1.170189,-0.427300,-9.540000,40.379997,6.180000,125.836,16.729,-116.392,,walk
2025-10-23T12:08:20.841392,6450,128,-9.340080,-16.331448,6.608296,4.291925,-4.230523,-5.322097,-13.632006,-12.100924,11.930393,-1.576720,1.170189,-0.427300,-9.540000,40.379997,6.180000,-102.804,27.930,-67.970,,walk
2025-10-23T12:08:20.891951,6501,129,-3.179500,-10.000880,4.091691,4.291925,-4.230523,-5.322097,-7.471425,-5.770357,9.413787,-1.576720,1.170189,-0.427300,-9.540000,40.379997,6.180000,-107.658,16.396,-67.749,,walk
2025-10-23T12:08:20.942197,6551,130,-1.719037,-7.496545,-2.990358,0.349117,1.947474,-1.346241,-2.068154,-9.444019,-1.644117,-1.799075,2.346715,-1.267240,-9.540000,40.379997,6.180000,136.998,12.024,-111.747,,walk
2025-10-23T12:08:20.991627,6600,131,-2.355895,-5.545270,1.027112,0.349117,1.947474,-1.346241,-2.705012,-7.492745,2.373353,-1.799075,2.346715,-1.267240,-21.539999,28.139999,11.700000,-122.733,22.672,-79.506,,walk
2025-10-23T12:08:21.041705,6650,132,-3.406949,-5.020940,0.691924,0.349117,1.947474,-1.346241,-3.756066,-6.968415,2.038165,-1.799075,2.346715,-1.267240,-21.539999,28.139999,11.700000,-114.106,33.909,-82.154,,walk
2025-10-23T12:08:21.092019,6701,133,-4.498705,-3.792415,0.481235,0.349117,1.947474,-1.346241,-4.847822,-5.739890,1.827476,-1.799075,2.346715,-1.267240,-21.539999,28.139999,11.700000,-100.429,49.643,-82.768,,walk
2025-10-23T12:08:21.141937,6751,134,-2.952051,-5.207688,-0.847547,-3.285501,4.605508,2.995921,0.333450,-9.813196,-3.843469,-0.000687,-1.465695,-0.105374,-21.539999,28.139999,11.700000,-129.385,29.227,-99.244,,walk
2025-10-23T12:08:21.191597,6800,135,-0.538695,-13.137284,-14.973936,-3.285501,4.605508,2.995921,2.746806,-17.742792,-17.969857,-0.000687,-1.465695,-0.105374,-21.359999,16.859999,18.959999,-179.432,1.549,-138.738,,walk
2025-10-23T12:08:21.241512,6850,136,-0.265756,-10.831668,-3.945644,-3.285501,4.605508,2.995921,3.019745,-15.437176,-6.941566,-0.000687,-1.465695,-0.105374,-21.359999,16.859999,18.959999,-149.134,1.321,-110.015,,walk
2025-10-23T12:08:21.291774,6900,137,-4.985027,-8.243536,4.814740,-3.929692,1.129544,7.498286,-1.055335,-9.373080,-2.683547,1.742111,-1.078406,0.218995,-21.359999,16.859999,18.959999,-107.845,27.573,-59.712,,walk
2025-10-23T12:08:21.342230,6951,138,-5.547665,-21.057602,-3.239355,-3.929692,1.129544,7.498286,-1.617973,-22.187146,-10.737641,1.742111,-1.078406,0.218995,-21.359999,16.859999,18.959999,-127.262,14.595,-98.745,,walk
2025-10-23T12:08:21.391567,7000,139,-3.991134,-2.195483,1.314417,-3.929692,1.129544,7.498286,-0.061442,-3.325027,-6.183869,1.742111,-1.078406,0.218995,-16.139999,22.559999,16.920000,-79.907,57.334,-59.091,,walk
2025-10-23T12:08:21.441695,7050,140,-4.771644,-10.893917,3.272874,-3.929692,1.129544,7.498286,-0.841952,-12.023461,-4.225413,1.742111,-1.078406,0.218995,-16.139999,22.559999,16.920000,-106.918,22.757,-73.278,,walk
2025-10-23T12:08:21.492020,7101,141,-3.938462,-9.455002,1.625663,-2.438308,-1.284990,2.553475,-1.500154,-8.170012,-0.927812,1.220432,0.449368,-0.141415,-16.139999,22.559999,16.920000,-108.588,22.319,-80.244,,walk
2025-10-23T12:08:21.542617,7151,142,-2.363077,-7.156568,0.672771,-2.438308,-1.284990,2.553475,0.075231,-5.871578,-1.880704,1.220432,0.449368,-0.141415,-16.139999,22.559999,16.920000,-113.479,18.198,-84.630,,walk
2025-10-23T12:08:21.591564,7200,143,-1.635240,-10.060735,0.986411,-2.438308,-1.284990,2.553475,0.803068,-8.775744,-1.567064,1.220432,0.449368,-0.141415,-16.199999,26.099998,11.160000,-131.457,9.189,-84.400,,walk
2025-10-23T12:08:21.643002,7252,144,-1.120486,-9.373599,0.021548,1.435885,-0.041421,-1.573890,-2.556372,-9.332178,1.595438,1.276632,-0.105909,0.302073,-16.199999,26.099998,11.160000,-138.490,6.817,-89.868,,walk
2025-10-23T12:08:21.691763,7300,145,-1.668759,-9.421483,-0.502782,1.435885,-0.041421,-1.573890,-3.104644,-9.380062,1.071108,1.276632,-0.105909,0.302073,-16.199999,26.099998,11.160000,-138.485,10.030,-93.055,,walk
2025-10-23T12:08:21.741742,7350,146,-2.063802,-10.644920,-0.663194,1.435885,-0.041421,-1.573890,-3.499687,-10.603499,0.910696,1.276632,-0.105909,0.302073,-16.199999,26.099998,11.160000,-138.063,10.951,-93.565,,walk
2025-10-23T12:08:21.791851,7400,147,-2.037466,-12.107778,-1.091756,1.435885,-0.041421,-1.573890,-3.473351,-12.066357,0.482134,1.276632,-0.105909,0.302073,-14.580000,29.099998,4.860000,-161.431,9.514,-95.152,,walk
2025-10-23T12:08:21.842223,7451,148,-1.233014,-11.461343,-1.319205,1.776811,-2.931651,-4.680389,-3.009825,-8.529692,3.361184,-0.846736,1.350394,-0.282525,-14.580000,29.099998,4.860000,-167.840,6.100,-96.566,,walk
2025-10-23T12:08:21.891669,7500,149,0.665588,-10.704775,-8.028057,1.776811,-2.931651,-4.680389,-1.111223,-7.773124,-3.347668,-0.846736,1.350394,-0.282525,-14.580000,29.099998,4.860000,136.282,-2.848,-126.868,,walk
2025-10-23T12:08:21.941590,7550,150,0.665588,-10.704775,-8.028057,1.776811,-2.931651,-4.680389,-1.111223,-7.773124,-3.347668,-0.846736,1.350394,-0.282525,-14.580000,29.099998,4.860000,136.282,-2.848,-126.868,,walk
2025-10-23T12:08:21.993104,7602,151,0.665588,-10.704775,-8.028057,1.776811,-2.931651,-4.680389,-1.111223,-7.773124,-3.347668,-0.846736,1.350394,-0.282525,-18.719999,22.680000,4.080000,149.593,-2.848,-126.868,,walk
2025-10-23T12:08:22.042053,7651,152,-1.788469,-9.091084,-6.265925,0.371662,0.315959,-4.530586,-2.160131,-9.407043,-1.735339,-0.047724,6.226931,-0.768163,-18.719999,22.680000,4.080000,158.311,9.201,-124.576,,walk
2025-10-23T12:08:22.091362,7700,153,-1.788469,-9.091084,-6.265925,0.371662,0.315959,-4.530586,-2.160131,-9.407043,-1.735339,-0.047724,6.226931,-0.768163,-18.719999,22.680000,4.080000,158.311,9.201,-124.576,,walk
2025-10-23T12:08:22.141939,7751,154,-1.788469,-9.091084,-6.265925,0.371662,0.315959,-4.530586,-2.160131,-9.407043,-1.735339,-0.047724,6.226931,-0.768163,-18.719999,22.680000,4.080000,158.311,9.201,-124.576,,walk
2025-10-23T12:08:22.191861,7800,155,-3.471592,-4.869806,0.165200,0.371662,0.315959,-4.530586,-3.843254,-5.185765,4.695786,-0.573679,-1.369178,-0.192728,-21.539999,15.240000,0.240000,-142.813,35.469,-88.057,,walk
2025-10-23T12:08:22.241779,7850,156,-3.471592,-4.869806,0.165200,-2.869804,4.320053,3.534801,-0.601789,-9.189859,-3.369601,-0.573679,-1.369178,-0.192728,-21.539999,15.240000,0.240000,-142.813,35.469,-88.057,,walk
2025-10-23T12:08:22.291765,7900,157,-3.471592,-4.869806,0.165200,-2.869804,4.320053,3.534801,-0.601789,-9.189859,-3.369601,-0.573679,-1.369178,-0.192728,-21.539999,15.240000,0.240000,-142.813,35.469,-88.057,,walk
2025-10-23T12:08:22.341964,7951,158,-3.471592,-4.869806,0.165200,-2.869804,4.320053,3.534801,-0.601789,-9.189859,-3.369601,-0.573679,-1.369178,-0.192728,-21.539999,15.240000,0.240000,-142.813,35.469,-88.057,,walk
2025-10-23T12:08:22.392012,8001,159,-0.830788,-4.697424,-1.209072,0.439971,4.540762,1.825867,-1.270759,-9.238186,-3.034939,1.195387,-1.183475,-0.144470,-19.559999,15.179999,0.840000,-179.354,9.719,-104.434,,walk
2025-10-23T12:08:22.442282,8051,160,-0.830788,-4.697424,-1.209072,0.439971,4.540762,1.825867,-1.270759,-9.238186,-3.034939,1.195387,-1.183475,-0.144470,-19.559999,15.179999,0.840000,-179.354,9.719,-104.434,,walk
2025-10-23T12:08:22.492135,8101,161,-0.830788,-4.697424,-1.209072,0.439971,4.540762,1.825867,-1.270759,-9.238186,-3.034939,1.195387,-1.183475,-0.144470,-19.559999,15.179999,0.840000,-179.354,9.719,-104.434,,walk
2025-10-23T12:08:22.542225,8151,162,-0.830788,-4.697424,-1.209072,0.439971,4.540762,1.825867,-1.270759,-9.238186,-3.034939,1.195387,-1.183475,-0.144470,-19.559999,15.179999,0.840000,-179.354,9.719,-104.434,,walk
2025-10-23T12:08:22.592755,8201,163,-5.040094,-11.707946,3.284845,-2.546909,-2.256604,4.076121,-2.493185,-9.451342,-0.791276,0.957150,0.053527,0.153633,-15.599999,19.260000,-5.820000,-160.853,22.513,-74.328,,walk
2025-10-23T12:08:22.641867,8250,164,-5.040094,-11.707946,3.284845,-2.546909,-2.256604,4.076121,-2.493185,-9.451342,-0.791276,0.957150,0.053527,0.153633,-15.599999,19.260000,-5.820000,-160.853,22.513,-74.328,,walk
2025-10-23T12:08:22.691658,8300,165,-5.040094,-11.707946,3.284845,-2.546909,-2.256604,4.076121,-2.493185,-9.451342,-0.791276,0.957150,0.053527,0.153633,-15.599999,19.260000,-5.820000,-160.853,22.513,-74.328,,walk
2025-10-23T12:08:22.741751,8350,166,-1.534683,-10.288184,-0.191536,1.375538,-1.006453,-1.436643,-2.910222,-9.281732,1.245107,1.174618,-1.713706,0.412029,-15.599999,19.260000,-5.820000,166.824,8.483,-91.067,,walk
2025-10-23T12:08:22.792059,8401,167,-1.534683,-10.288184,-0.191536,1.375538,-1.006453,-1.436643,-2.910222,-9.281732,1.245107,1.174618,-1.713706,0.412029,-14.219999,20.639999,-13.679999,143.697,8.483,-91.067,,walk
2025-10-23T12:08:22.842070,8451,168,-1.534683,-10.288184,-0.191536,1.375538,-1.006453,-1.436643,-2.910222,-9.281732,1.245107,1.174618,-1.713706,0.412029,-14.219999,20.639999,-13.679999,143.697,8.483,-91.067,,walk
2025-10-23T12:08:22.892189,8501,169,-1.534683,-10.288184,-0.191536,1.375538,-1.006453,-1.436643,-2.910222,-9.281732,1.245107,1.174618,-1.713706,0.412029,-14.219999,20.639999,-13.679999,143.697,8.483,-91.067,,walk
2025-10-23T12:08:22.941560,8550,170,-0.976834,-13.417405,-3.507505,2.346630,-4.486476,-5.823370,-3.323464,-8.930929,2.315865,-0.428293,1.457906,-0.261756,-14.219999,20.639999,-13.679999,130.947,4.029,-104.650,,walk
2025-10-23T12:08:22.992067,8601,171,-0.976834,-13.417405,-3.507505,2.346630,-4.486476,-5.823370,-3.323464,-8.930929,2.315865,-0.428293,1.457906,-0.261756,-10.380000,22.199999,-21.299999,114.956,4.029,-104.650,,walk
2025-10-23T12:08:23.042193,8651,172,-0.976834,-13.417405,-3.507505,2.346630,-4.486476,-5.823370,-3.323464,-8.930929,2.315865,-0.428293,1.457906,-0.261756,-10.380000,22.199999,-21.299999,114.956,4.029,-104.650,,walk
2025-10-23T12:08:23.092516,8701,173,-3.945644,-10.355222,-6.026505,1.387716,-4.018802,-2.009047,-5.333360,-6.336420,-4.017458,-0.009850,4.753524,-0.786489,-10.380000,22.199999,-21.299999,122.588,18.228,-120.198,,walk
2025-10-23T12:08:23.142500,8751,174,-3.945644,-10.355222,-6.026505,1.387716,-4.018802,-2.009047,-5.333360,-6.336420,-4.017458,-0.009850,4.753524,-0.786489,-10.380000,22.199999,-21.299999,122.588,18.228,-120.198,,walk
2025-10-23T12:08:23.191638,8800,175,-3.945644,-10.355222,-6.026505,1.387716,-4.018802,-2.009047,-5.333360,-6.336420,-4.017458,-0.009850,4.753524,-0.786489,-11.759999,32.639999,-17.219999,121.165,18.228,-120.198,,walk
2025-10-23T12:08:23.241594,8850,176,-3.945644,-10.355222,-6.026505,1.387716,-4.018802,-2.009047,-5.333360,-6.336420,-4.017458,-0.009850,4.753524,-0.786489,-11.759999,32.639999,-17.219999,121.165,18.228,-120.198,,walk
2025-10-23T12:08:23.291767,8900,177,-4.220978,-4.314352,0.701501,-3.545638,4.827934,4.184615,-0.675340,-9.142285,-3.483114,-0.461890,-1.506012,-0.341168,-11.759999,32.639999,-17.219999,-176.987,44.000,-80.765,,walk
2025-10-23T12:08:23.341795,8950,178,-4.220978,-4.314352,0.701501,-3.545638,4.827934,4.184615,-0.675340,-9.142285,-3.483114,-0.461890,-1.506012,-0.341168,-11.759999,32.639999,-17.219999,-176.987,44.000,-80.765,,walk
2025-10-23T12:08:23.392033,9001,179,-4.220978,-4.314352,0.701501,-3.545638,4.827934,4.184615,-0.675340,-9.142285,-3.483114,-0.461890,-1.506012,-0.341168,-18.840000,33.419998,-7.620000,-145.669,44.000,-80.765,,walk
2025-10-23T12:08:23.442211,9051,180,-4.220978,-4.314352,0.701501,-3.545638,4.827934,4.184615,-0.675340,-9.142285,-3.483114,-0.461890,-1.506012,-0.341168,-18.840000,33.419998,-7.620000,-145.669,44.000,-80.765,,walk
2025-10-23T12:08:23.491656,9100,181,-1.347936,-4.412514,-2.152387,-0.017660,4.723213,1.154992,-1.330276,-9.135727,-3.307380,1.200885,-0.982500,-0.185398,-18.840000,33.419998,-7.620000,140.275,15.353,-116.003,,walk
2025-10-23T12:08:23.542261,9151,182,-1.347936,-4.412514,-2.152387,-0.017660,4.723213,1.154992,-1.330276,-9.135727,-3.307380,1.200885,-0.982500,-0.185398,-18.840000,33.419998,-7.620000,140.275,15.353,-116.003,,walk
2025-10-23T12:08:23.592282,9201,183,-1.347936,-4.412514,-2.152387,-0.017660,4.723213,1.154992,-1.330276,-9.135727,-3.307380,1.200885,-0.982500,-0.185398,-18.840000,37.139999,-10.440000,135.115,15.353,-116.003,,walk
2025-10-23T12:08:23.642071,9251,184,-6.045659,-12.081441,2.966416,-3.433805,-2.681588,3.961940,-2.611854,-9.399853,-0.995524,0.795270,-0.922636,0.548252,-18.840000,37.139999,-10.440000,-160.221,25.919,-76.205,,walk
2025-10-23T12:08:23.691675,9300,185,-6.045659,-12.081441,2.966416,-3.433805,-2.681588,3.961940,-2.611854,-9.399853,-0.995524,0.795270,-0.922636,0.548252,-18.840000,37.139999,-10.440000,-160.221,25.919,-76.205,,walk
2025-10-23T12:08:23.741774,9350,186,-6.045659,-12.081441,2.966416,-3.433805,-2.681588,3.961940,-2.611854,-9.399853,-0.995524,0.795270,-0.922636,0.548252,-18.840000,37.139999,-10.440000,-160.221,25.919,-76.205,,walk
2025-10-23T12:08:23.791799,9400,187,-6.045659,-12.081441,2.966416,-3.433805,-2.681588,3.961940,-2.611854,-9.399853,-0.995524,0.795270,-0.922636,0.548252,-17.039999,36.480000,-14.040000,-170.301,25.919,-76.205,,walk
2025-10-23T12:08:23.842183,9451,188,-1.051055,-11.114183,-0.241814,2.058597,-1.872832,-1.289448,-3.109652,-9.241351,1.047633,0.971810,-1.725923,0.514654,-17.039999,36.480000,-14.040000,144.249,5.401,-91.246,,walk
2025-10-23T12:08:23.891822,9500,189,-1.051055,-11.114183,-0.241814,2.058597,-1.872832,-1.289448,-3.109652,-9.241351,1.047633,0.971810,-1.725923,0.514654,-17.039999,36.480000,-14.040000,144.249,5.401,-91.246,,walk
2025-10-23T12:08:23.941632,9550,190,-1.051055,-11.114183,-0.241814,2.058597,-1.872832,-1.289448,-3.109652,-9.241351,1.047633,0.971810,-1.725923,0.514654,-17.039999,36.480000,-14.040000,144.249,5.401,-91.246,,walk
2025-10-23T12:08:23.992026,9601,191,-1.218649,-12.816461,-6.038476,2.457653,-4.021137,-8.340034,-3.676302,-8.795323,2.301558,0.454407,0.672944,0.200669,-14.219999,34.559998,-19.320000,117.011,4.916,-115.227,,walk
2025-10-23T12:08:24.042225,9651,192,-1.218649,-12.816461,-6.038476,2.457653,-4.021137,-8.340034,-3.676302,-8.795323,2.301558,0.454407,0.672944,0.200669,-14.219999,34.559998,-19.320000,117.011,4.916,-115.227,,walk
2025-10-23T12:08:24.092194,9701,193,-1.218649,-12.816461,-6.038476,2.457653,-4.021137,-8.340034,-3.676302,-8.795323,2.301558,0.454407,0.672944,0.200669,-14.219999,34.559998,-19.320000,117.011,4.916,-115.227,,walk
2025-10-23T12:08:24.141686,9750,194,-1.218649,-12.816461,-6.038476,2.457653,-4.021137,-8.340034,-3.676302,-8.795323,2.301558,0.454407,0.672944,0.200669,-14.219999,34.559998,-19.320000,117.011,4.916,-115.227,,walk
2025-10-23T12:08:24.193055,9802,195,-4.264073,-12.433389,7.597101,-1.154068,-3.250496,9.070992,-3.110005,-9.182893,-1.473890,-0.902935,1.642998,-0.056505,-13.740000,32.219997,-10.620000,-144.827,16.312,-58.574,,walk
2025-10-23T12:08:24.241669,9850,196,-4.264073,-12.433389,7.597101,-1.154068,-3.250496,9.070992,-3.110005,-9.182893,-1.473890,-0.902935,1.642998,-0.056505,-13.740000,32.219997,-10.620000,-144.827,16.312,-58.574,,walk
2025-10-23T12:08:24.291680,9900,197,-4.264073,-12.433389,7.597101,-1.154068,-3.250496,9.070992,-3.110005,-9.182893,-1.473890,-0.902935,1.642998,-0.056505,-13.740000,32.219997,-10.620000,-144.827,16.312,-58.574,,walk
2025-10-23T12:08:24.342325,9951,198,-4.264073,-12.433389,7.597101,-1.154068,-3.250496,9.070992,-3.110005,-9.182893,-1.473890,-0.902935,1.642998,-0.056505,-13.740000,32.219997,-10.620000,-144.827,16.312,-58.574,,walk
2025-10-23T12:08:24.392448,10001,199,-5.231630,-4.242526,3.191471,-4.031005,5.166088,5.682742,-1.200625,-9.408613,-2.491271,-0.240146,-2.882902,-0.528093,-13.020000,26.939999,-3.960000,-119.569,44.580,-53.047,,walk
2025-10-23T12:08:24.441686,10050,200,-5.231630,-4.242526,3.191471,-4.031005,5.166088,5.682742,-1.200625,-9.408613,-2.491271,-0.240146,-2.882902,-0.528093,-13.020000,26.939999,-3.960000,-119.569,44.580,-53.047,,walk
2025-10-23T12:08:24.492132,10101,201,-5.231630,-4.242526,3.191471,-4.031005,5.166088,5.682742,-1.200625,-9.408613,-2.491271,-0.240146,-2.882902,-0.528093,-13.020000,26.939999,-3.960000,-119.569,44.580,-53.047,,walk
2025-10-23T12:08:24.541917,10151,202,2.451663,-12.883498,-5.736806,4.600338,-3.880188,-2.497443,-2.148676,-9.003310,-3.239363,-0.416076,-1.380785,-1.158506,-13.020000,26.939999,-3.960000,126.266,-9.862,-114.003,,walk
2025-10-23T12:08:24.592585,10201,203,2.451663,-12.883498,-5.736806,4.600338,-3.880188,-2.497443,-2.148676,-9.003310,-3.239363,-0.416076,-1.380785,-1.158506,-5.460000,24.840000,3.060000,125.736,-9.862,-114.003,,walk
2025-10-23T12:08:24.642361,10251,204,2.451663,-12.883498,-5.736806,4.600338,-3.880188,-2.497443,-2.148676,-9.003310,-3.239363,-0.416076,-1.380785,-1.158506,-5.460000,24.840000,3.060000,125.736,-9.862,-114.003,,walk
2025-10-23T12:08:24.691794,10300,205,2.451663,-12.883498,-5.736806,4.600338,-3.880188,-2.497443,-2.148676,-9.003310,-3.239363,-0.416076,-1.380785,-1.158506,-5.460000,24.840000,3.060000,125.736,-9.862,-114.003,,walk
2025-10-23T12:08:24.741707,10350,206,-5.511752,-6.759130,1.180341,-2.633541,2.541475,2.357043,-2.878211,-9.300606,-1.176701,-0.150960,-3.054555,0.510378,-5.460000,24.840000,3.060000,-103.183,38.775,-80.094,,walk
2025-10-23T12:08:24.791962,10401,207,-5.511752,-6.759130,1.180341,-2.633541,2.541475,2.357043,-2.878211,-9.300606,-1.176701,-0.150960,-3.054555,0.510378,3.480000,27.539999,-0.960000,-41.271,38.775,-80.094,,walk
2025-10-23T12:08:24.842400,10451,208,-5.511752,-6.759130,1.180341,-2.633541,2.541475,2.357043,-2.878211,-9.300606,-1.176701,-0.150960,-3.054555,0.510378,3.480000,27.539999,-0.960000,-41.271,38.775,-80.094,,walk
2025-10-23T12:08:24.892127,10501,209,-2.183512,-9.988909,0.354342,1.272501,-0.830726,-0.240513,-3.456013,-9.158183,0.594855,0.659658,-1.644678,0.470061,3.480000,27.539999,-0.960000,12.413,12.323,-87.968,,walk
2025-10-23T12:08:24.941990,10551,210,-2.183512,-9.988909,0.354342,1.272501,-0.830726,-0.240513,-3.456013,-9.158183,0.594855,0.659658,-1.644678,0.470061,3.480000,27.539999,-0.960000,12.413,12.323,-87.968,,walk
2025-10-23T12:08:24.991771,10600,211,-2.183512,-9.988909,0.354342,1.272501,-0.830726,-0.240513,-3.456013,-9.158183,0.594855,0.659658,-1.644678,0.470061,8.820000,28.859999,-6.180000,43.361,12.323,-87.968,,walk
2025-10-23T12:08:25.043141,10652,212,-2.183512,-9.988909,0.354342,1.272501,-0.830726,-0.240513,-3.456013,-9.158183,0.594855,0.659658,-1.644678,0.470061,8.820000,28.859999,-6.180000,43.361,12.323,-87.968,,walk
2025-10-23T12:08:25.091552,10700,213,0.239420,-11.748647,-6.646603,4.163927,-2.990040,-8.660361,-3.924507,-8.758607,2.013758,0.822759,-0.405233,0.372322,8.820000,28.859999,-6.180000,65.346,-1.016,-119.498,,walk
2025-10-23T12:08:25.141732,10750,214,0.239420,-11.748647,-6.646603,4.163927,-2.990040,-8.660361,-3.924507,-8.758607,2.013758,0.822759,-0.405233,0.372322,8.820000,28.859999,-6.180000,65.346,-1.016,-119.498,,walk
2025-10-23T12:08:25.192717,10801,215,0.239420,-11.748647,-6.646603,4.163927,-2.990040,-8.660361,-3.924507,-8.758607,2.013758,0.822759,-0.405233,0.372322,14.160000,29.039999,-7.260000,54.994,-1.016,-119.498,,walk
2025-10-23T12:08:25.241760,10850,216,0.239420,-11.748647,-6.646603,4.163927,-2.990040,-8.660361,-3.924507,-8.758607,2.013758,0.822759,-0.405233,0.372322,14.160000,29.039999,-7.260000,54.994,-1.016,-119.498,,walk
2025-10-23T12:08:25.291868,10900,217,-7.305009,-14.866197,8.044817,-4.026448,-5.703402,9.254975,-3.278561,-9.162795,-1.210158,-2.292043,-2.098551,-0.468228,14.160000,29.039999,-7.260000,-16.617,23.372,-61.580,,walk
2025-10-23T12:08:25.342413,10951,218,-7.305009,-14.866197,8.044817,-4.026448,-5.703402,9.254975,-3.278561,-9.162795,-1.210158,-2.292043,-2.098551,-0.468228,14.160000,29.039999,-7.260000,-16.617,23.372,-61.580,,walk
2025-10-23T12:08:25.392329,11001,219,-7.305009,-14.866197,8.044817,-4.026448,-5.703402,9.254975,-3.278561,-9.162795,-1.210158,-2.292043,-2.098551,-0.468228,13.440000,32.880001,9.120000,-48.950,23.372,-61.580,,walk
2025-10-23T12:08:25.441601,11050,220,-4.472369,-5.427955,2.944868,-3.142464,3.721310,6.214790,-1.329905,-9.149264,-3.269922,-0.466167,-2.136425,-0.776104,13.440000,32.880001,9.120000,-43.195,35.913,-61.519,,walk
2025-10-23T12:08:25.492265,11101,221,-4.472369,-5.427955,2.944868,-3.142464,3.721310,6.214790,-1.329905,-9.149264,-3.269922,-0.466167,-2.136425,-0.776104,13.440000,32.880001,9.120000,-43.195,35.913,-61.519,,walk
2025-10-23T12:08:25.541921,11151,222,-4.472369,-5.427955,2.944868,-3.142464,3.721310,6.214790,-1.329905,-9.149264,-3.269922,-0.466167,-2.136425,-0.776104,13.440000,32.880001,9.120000,-43.195,35.913,-61.519,,walk
2025-10-23T12:08:25.592734,11201,223,-4.472369,-5.427955,2.944868,-3.142464,3.721310,6.214790,-1.329905,-9.149264,-3.269922,-0.466167,-2.136425,-0.776104,17.760000,37.380001,13.380000,-39.296,35.913,-61.519,,walk
2025-10-23T12:08:25.641882,11250,224,2.942474,-17.040133,-11.877934,5.264022,-8.243864,-8.216507,-2.321548,-8.796268,-3.661427,-0.403247,0.511676,-0.354607,17.760000,37.380001,13.380000,28.317,-8.063,-124.879,,walk
2025-10-23T12:08:25.691724,11300,225,2.942474,-17.040133,-11.877934,5.264022,-8.243864,-8.216507,-2.321548,-8.796268,-3.661427,-0.403247,0.511676,-0.354607,17.760000,37.380001,13.380000,28.317,-8.063,-124.879,,walk
2025-10-23T12:08:25.741622,11350,226,2.942474,-17.040133,-11.877934,5.264022,-8.243864,-8.216507,-2.321548,-8.796268,-3.661427,-0.403247,0.511676,-0.354607,17.760000,37.380001,13.380000,28.317,-8.063,-124.879,,walk
2025-10-23T12:08:25.792968,11402,227,-5.703288,-4.711789,-2.018312,-2.864958,4.582585,-0.703527,-2.838330,-9.294374,-1.314785,-0.318948,-1.683163,0.558636,24.600000,45.719997,4.740000,57.960,48.052,-113.188,,walk
2025-10-23T12:08:25.842649,11451,228,-5.703288,-4.711789,-2.018312,-2.864958,4.582585,-0.703527,-2.838330,-9.294374,-1.314785,-0.318948,-1.683163,0.558636,24.600000,45.719997,4.740000,57.960,48.052,-113.188,,walk
2025-10-23T12:08:25.892191,11501,229,-5.703288,-4.711789,-2.018312,-2.864958,4.582585,-0.703527,-2.838330,-9.294374,-1.314785,-0.318948,-1.683163,0.558636,24.600000,45.719997,4.740000,57.960,48.052,-113.188,,walk
2025-10-23T12:08:25.941763,11550,230,-5.703288,-4.711789,-2.018312,-2.864958,4.582585,-0.703527,-2.838330,-9.294374,-1.314785,-0.318948,-1.683163,0.558636,24.600000,45.719997,4.740000,57.960,48.052,-113.188,,walk
2025-10-23T12:08:25.992704,11601,231,-2.566584,-9.129391,0.430956,1.077955,-0.034707,0.013602,-3.644540,-9.094684,0.417354,1.057331,-0.785802,0.321010,29.459999,48.539997,-0.660000,12.604,15.686,-87.297,,walk
2025-10-23T12:08:26.042346,11651,232,-2.566584,-9.129391,0.430956,1.077955,-0.034707,0.013602,-3.644540,-9.094684,0.417354,1.057331,-0.785802,0.321010,29.459999,48.539997,-0.660000,12.604,15.686,-87.297,,walk
2025-10-23T12:08:26.092381,11701,233,-2.566584,-9.129391,0.430956,1.077955,-0.034707,0.013602,-3.644540,-9.094684,0.417354,1.057331,-0.785802,0.321010,29.459999,48.539997,-0.660000,12.604,15.686,-87.297,,walk
2025-10-23T12:08:26.142779,11751,234,-2.566584,-9.129391,0.430956,1.077955,-0.034707,0.013602,-3.644540,-9.094684,0.417354,1.057331,-0.785802,0.321010,29.459999,48.539997,-0.660000,12.604,15.686,-87.297,,walk
2025-10-23T12:08:26.191744,11800,235,-0.531513,-12.237064,-0.380678,3.697244,-3.603641,-2.317611,-4.228756,-8.633424,1.936933,0.184405,1.456685,0.017410,33.000000,52.559998,-8.880000,20.113,2.486,-91.782,,walk
2025-10-23T12:08:26.241972,11851,236,-0.531513,-12.237064,-0.380678,3.697244,-3.603641,-2.317611,-4.228756,-8.633424,1.936933,0.184405,1.456685,0.017410,33.000000,52.559998,-8.880000,20.113,2.486,-91.782,,walk
2025-10-23T12:08:26.291802,11900,237,-0.531513,-12.237064,-0.380678,3.697244,-3.603641,-2.317611,-4.228756,-8.633424,1.936933,0.184405,1.456685,0.017410,33.000000,52.559998,-8.880000,20.113,2.486,-91.782,,walk
2025-10-23T12:08:26.342630,11951,238,-7.158962,-13.843574,8.382400,-3.703137,-4.807158,9.985743,-3.455825,-9.036415,-1.603343,-0.843070,1.831756,-0.136528,33.000000,52.559998,-8.880000,-18.426,23.863,-58.805,,walk
2025-10-23T12:08:26.392322,12001,239,-7.158962,-13.843574,8.382400,-3.703137,-4.807158,9.985743,-3.455825,-9.036415,-1.603343,-0.843070,1.831756,-0.136528,21.840000,55.980000,19.139999,-52.721,23.863,-58.805,,walk
2025-10-23T12:08:26.441843,12050,240,-7.158962,-13.843574,8.382400,-3.703137,-4.807158,9.985743,-3.455825,-9.036415,-1.603343,-0.843070,1.831756,-0.136528,21.840000,55.980000,19.139999,-52.721,23.863,-58.805,,walk
2025-10-23T12:08:26.492741,12101,241,-7.158962,-13.843574,8.382400,-3.703137,-4.807158,9.985743,-3.455825,-9.036415,-1.603343,-0.843070,1.831756,-0.136528,21.840000,55.980000,19.139999,-52.721,23.863,-58.805,,walk
2025-10-23T12:08:26.541945,12151,242,-4.036624,-4.951509,2.559402,-2.443607,4.077720,6.038624,-1.593017,-9.029228,-3.479222,-0.793590,-1.947667,-0.727235,21.840000,55.980000,19.139999,-44.177,35.912,-62.666,,walk
2025-10-23T12:08:26.591389,12200,243,-4.036624,-4.951509,2.559402,-2.443607,4.077720,6.038624,-1.593017,-9.029228,-3.479222,-0.793590,-1.947667,-0.727235,2.700000,47.399998,30.719999,-64.552,35.912,-62.666,,walk
2025-10-23T12:08:26.641549,12250,244,-4.036624,-4.951509,2.559402,-2.443607,4.077720,6.038624,-1.593017,-9.029228,-3.479222,-0.793590,-1.947667,-0.727235,2.700000,47.399998,30.719999,-64.552,35.912,-62.666,,walk
2025-10-23T12:08:26.691453,12300,245,-0.083797,-9.141361,-3.138798,2.117316,-0.416159,0.759408,-2.201114,-8.725203,-3.898206,0.257098,-0.407065,-0.888503,2.700000,47.399998,30.719999,-77.730,0.497,-108.951,,walk
2025-10-23T12:08:26.742254,12351,246,-0.083797,-9.141361,-3.138798,2.117316,-0.416159,0.759408,-2.201114,-8.725203,-3.898206,0.257098,-0.407065,-0.888503,2.700000,47.399998,30.719999,-77.730,0.497,-108.951,,walk
2025-10-23T12:08:26.792407,12401,247,-0.083797,-9.141361,-3.138798,2.117316,-0.416159,0.759408,-2.201114,-8.725203,-3.898206,0.257098,-0.407065,-0.888503,4.320000,43.739998,32.219997,-74.181,0.497,-108.951,,walk
2025-10-23T12:08:26.841678,12450,248,-0.083797,-9.141361,-3.138798,2.117316,-0.416159,0.759408,-2.201114,-8.725203,-3.898206,0.257098,-0.407065,-0.888503,4.320000,43.739998,32.219997,-74.181,0.497,-108.951,,walk
2025-10-23T12:08:26.891967,12501,249,-3.983952,-7.927501,1.312023,-1.044406,1.333760,2.637933,-2.939545,-9.261261,-1.325910,0.274202,-3.019736,1.159728,4.320000,43.739998,32.219997,-61.671,26.372,-80.603,,walk
2025-10-23T12:08:26.941682,12550,250,-3.983952,-7.927501,1.312023,-1.044406,1.333760,2.637933,-2.939545,-9.261261,-1.325910,0.274202,-3.019736,1.159728,4.320000,43.739998,32.219997,-61.671,26.372,-80.603,,walk
2025-10-23T12:08:26.991320,12600,251,-2.346318,-7.757513,0.509965,-1.044406,1.333760,2.637933,-1.301911,-9.091272,-2.127968,0.274202,-3.019736,1.159728,10.320000,45.779999,17.340000,-48.095,16.794,-86.239,,walk
2025-10-23T12:08:27.042196,12651,252,-3.368642,-9.806950,0.332794,0.378348,-0.783422,-0.507537,-3.746990,-9.023527,0.840332,1.382923,-0.518243,0.329562,10.320000,45.779999,17.340000,-43.479,18.947,-88.056,,walk
2025-10-23T12:08:27.092343,12701,253,-3.825934,-8.794202,-0.253785,0.378348,-0.783422,-0.507537,-4.204283,-8.010779,0.253752,1.382923,-0.518243,0.329562,10.320000,45.779999,17.340000,-32.564,23.503,-91.653,,walk
2025-10-23T12:08:27.142103,12751,254,-3.380613,-10.285789,-0.023942,0.378348,-0.783422,-0.507537,-3.758961,-9.502367,0.483595,1.382923,-0.518243,0.329562,10.320000,45.779999,17.340000,-40.818,18.194,-90.133,,walk
2025-10-23T12:08:27.191626,12800,255,0.229843,-13.019968,-3.469198,0.378348,-0.783422,-0.507537,-0.148505,-12.236546,-2.961661,1.382923,-0.518243,0.329562,11.219999,48.599998,6.000000,30.436,-0.977,-104.920,,walk
2025-10-23T12:08:27.241852,12850,256,0.641646,-12.931382,-5.439926,3.860491,-5.420805,-8.300394,-3.218845,-7.510577,2.860468,-0.686689,0.963105,-0.277027,11.219999,48.599998,6.000000,49.601,-2.619,-112.815,,walk
2025-10-23T12:08:27.291493,12900,257,-1.762132,-11.791742,-7.276278,3.860491,-5.420805,-8.300394,-5.622623,-6.370937,1.024116,-0.686689,0.963105,-0.277027,11.219999,48.599998,6.000000,61.242,7.248,-121.677,,walk
2025-10-23T12:08:27.341951,12951,258,-1.869871,-16.558897,5.207688,3.860491,-5.420805,-8.300394,-5.730362,-11.138092,13.508082,-0.686689,0.963105,-0.277027,11.219999,48.599998,6.000000,-58.330,6.148,-72.542,,walk
2025-10-23T12:08:27.392818,13001,259,-3.270479,-9.320927,4.010288,3.860491,-5.420805,-8.300394,-7.130970,-3.900122,12.310682,-0.686689,0.963105,-0.277027,5.700000,38.759998,13.259999,-69.437,17.865,-66.720,,walk
2025-10-23T12:08:27.441581,13050,260,0.076614,-7.209240,-0.536301,-0.437819,1.292558,-2.104328,0.514434,-8.501799,1.568026,0.478842,5.629505,-1.227534,5.700000,38.759998,13.259999,-61.891,-0.607,-94.254,,walk
2025-10-23T12:08:27.492646,13101,261,-1.522712,-7.273884,2.221819,-0.437819,1.292558,-2.104328,-1.084893,-8.566442,4.326147,0.478842,5.629505,-1.227534,5.700000,38.759998,13.259999,-70.146,11.321,-73.015,,walk
2025-10-23T12:08:27.541707,13150,262,-3.349488,-5.274725,2.671929,-0.437819,1.292558,-2.104328,-2.911669,-6.567284,4.776257,0.478842,5.629505,-1.227534,5.700000,38.759998,13.259999,-65.566,29.530,-63.135,,walk
2025-10-23T12:08:27.592103,13201,263,-6.083966,-3.315969,0.842759,-4.701779,5.671084,4.515970,-1.382187,-8.987054,-3.673211,-1.193096,-1.696602,-0.366825,-0.540000,30.779999,19.920000,-45.668,60.648,-75.740,,walk
2025-10-23T12:08:27.642202,13251,264,-3.684676,-6.586748,-5.042488,-4.701779,5.671084,4.515970,1.017102,-12.257833,-9.558458,-1.193096,-1.696602,-0.366825,-0.540000,30.779999,19.920000,28.257,23.950,-127.436,,walk
2025-10-23T12:08:27.691531,13300,265,3.251326,-16.242863,-17.770363,-4.701779,5.671084,4.515970,7.953105,-21.913947,-22.286333,-1.193096,-1.696602,-0.366825,-0.540000,30.779999,19.920000,108.714,-7.691,-137.571,,walk
2025-10-23T12:08:27.742084,13351,266,-0.718261,-11.205163,-5.830181,-4.701779,5.671084,4.515970,3.983518,-16.876247,-10.346151,-1.193096,-1.696602,-0.366825,-0.540000,30.779999,19.920000,-80.302,3.255,-117.489,,walk
2025-10-23T12:08:27.792289,13401,267,-2.580950,-19.475035,-5.676951,-3.138652,-3.293442,8.871486,0.557702,-16.181593,-14.548437,3.407330,-1.427210,1.282512,6.720000,28.379999,21.000000,-50.353,7.251,-106.251,,walk
2025-10-23T12:08:27.841674,13450,268,-4.331111,-2.346318,2.293645,-3.138652,-3.293442,8.871486,-1.192459,0.947124,-6.577841,3.407330,-1.427210,1.282512,6.720000,28.379999,21.000000,-50.330,52.853,-45.650,,walk
2025-10-23T12:08:27.891723,13500,269,-3.356671,-6.366482,1.209072,-3.138652,-3.293442,8.871486,-0.218019,-3.073040,-7.662414,3.407330,-1.427210,1.282512,6.720000,28.379999,21.000000,-52.789,27.383,-79.247,,walk
2025-10-23T12:08:27.942738,13551,270,-5.181352,-11.906664,2.806004,-3.138652,-3.293442,8.871486,-2.042700,-8.613222,-6.065481,3.407330,-1.427210,1.282512,6.720000,28.379999,21.000000,-57.741,22.956,-76.739,,walk
2025-10-23T12:08:27.992262,13601,271,-2.509123,-6.064812,1.225831,-0.494887,0.536971,2.806318,-2.014236,-6.601783,-1.580487,1.344438,-0.199982,0.025962,13.500000,33.540001,11.099999,-35.170,22.073,-78.573,,walk
2025-10-23T12:08:28.041657,13650,272,-3.083732,-9.344869,0.723049,-0.494887,0.536971,2.806318,-2.588845,-9.881840,-2.083269,1.344438,-0.199982,0.025962,13.500000,33.540001,11.099999,-28.628,18.212,-85.576,,walk
2025-10-23T12:08:28.091690,13700,273,-3.246537,-9.811738,0.656011,-0.494887,0.536971,2.806318,-2.751650,-10.348709,-2.150307,1.344438,-0.199982,0.025962,13.500000,33.540001,11.099999,-27.629,18.270,-86.175,,walk
2025-10-23T12:08:28.142302,13751,274,-2.726996,-9.234735,-0.490811,1.197021,-0.379398,-2.025528,-3.924016,-8.855337,1.534717,1.498376,0.759076,0.487776,13.500000,33.540001,11.099999,-17.390,16.430,-93.042,,walk
2025-10-23T12:08:28.191521,13800,275,-0.514753,-13.769353,-3.368642,1.197021,-0.379398,-2.025528,-1.711774,-13.389955,-1.343113,1.498376,0.759076,0.487776,16.920000,36.119999,3.480000,18.808,2.080,-103.747,,walk
2025-10-23T12:08:28.242277,13851,276,0.234632,-14.169185,-6.064812,1.197021,-0.379398,-2.025528,-0.962389,-13.789786,-4.039284,1.498376,0.759076,0.487776,16.920000,36.119999,3.480000,32.580,-0.872,-113.172,,walk
2025-10-23T12:08:28.291485,13900,277,-1.996764,-12.313679,-6.672939,1.197021,-0.379398,-2.025528,-3.193785,-11.934280,-4.647411,1.498376,0.759076,0.487776,16.920000,36.119999,3.480000,43.357,8.114,-118.454,,walk
2025-10-23T12:08:28.342889,13951,278,-3.701436,-16.625935,4.177882,1.897458,-3.316696,-6.916454,-5.598893,-13.309238,11.094337,-3.832645,1.070618,-1.347874,16.920000,36.119999,3.480000,-26.570,12.184,-75.894,,walk
2025-10-23T12:08:28.391941,14001,279,-4.213795,-10.683228,4.235343,1.897458,-3.316696,-6.916454,-6.111253,-7.366531,11.151797,-3.832645,1.070618,-1.347874,14.520000,33.779999,12.599999,-46.293,20.136,-68.374,,walk
2025-10-23T12:08:28.441560,14050,280,0.723049,-6.759130,-0.289698,1.897458,-3.316696,-6.916454,-1.174409,-3.442434,6.626756,-3.832645,1.070618,-1.347874,14.520000,33.779999,12.599999,-43.916,-6.100,-92.454,,walk
2025-10-23T12:08:28.491711,14100,281,-1.975216,-6.972215,1.678335,-0.251852,2.082503,5.026723,-1.723364,-9.054718,-3.348387,-1.486312,-1.408884,-2.082745,14.520000,33.779999,12.599999,-42.633,15.399,-76.465,,walk
2025-10-23T12:08:28.541750,14150,282,-2.707842,-5.710470,2.932897,-0.251852,2.082503,5.026723,-2.455990,-7.792974,-2.093826,-1.486312,-1.408884,-2.082745,14.520000,33.779999,12.599999,-48.615,22.870,-62.815,,walk
2025-10-23T12:08:28.593309,14202,283,-5.097555,-2.322376,2.063802,-0.251852,2.082503,5.026723,-4.845703,-4.404879,-2.962921,-1.486312,-1.408884,-2.082745,7.440000,24.719999,22.980000,-41.260,58.638,-48.374,,walk
2025-10-23T12:08:28.641848,14250,284,-3.960010,-5.408801,-3.196259,-0.251852,2.082503,5.026723,-3.708158,-7.491304,-8.222982,-1.486312,-1.408884,-2.082745,7.440000,24.719999,22.980000,-2.300,32.224,-120.580,,walk
2025-10-23T12:08:28.691602,14300,285,3.208230,-18.232445,-23.356035,-3.293925,-0.306151,-8.592708,6.502156,-17.926293,-14.763328,0.326737,-0.796187,0.507934,7.440000,24.719999,22.980000,45.067,-6.180,-142.023,,walk
2025-10-23T12:08:28.741995,14351,286,-0.086191,-10.374375,-4.398149,-3.293925,-0.306151,-8.592708,3.207734,-10.068224,4.194559,0.326737,-0.796187,0.507934,7.440000,24.719999,22.980000,-56.384,0.438,-112.974,,walk
2025-10-23T12:08:28.792114,14401,287,-11.901875,-20.001760,6.330569,-3.293925,-0.306151,-8.592708,-8.607950,-19.695609,14.923276,0.326737,-0.796187,0.507934,14.520000,21.900000,23.340000,-38.392,29.566,-72.437,,walk
2025-10-23T12:08:28.842440,14451,288,-5.463868,-4.388572,3.507505,-2.664016,4.820845,5.382910,-2.799851,-9.209416,-1.875405,-0.756938,2.418797,-1.108415,14.520000,21.900000,23.340000,-35.219,44.203,-51.367,,walk
2025-10-23T12:08:28.891626,14500,289,-3.160346,-2.748544,1.745373,-2.664016,4.820845,5.382910,-0.496330,-7.569388,-3.637537,-0.756938,2.418797,-1.108415,14.520000,21.900000,23.340000,-33.026,44.147,-57.584,,walk
2025-10-23T12:08:28.942063,14551,290,-5.310638,-11.600206,2.765303,-2.664016,4.820845,5.382910,-2.646622,-16.421051,-2.617607,-0.756938,2.418797,-1.108415,14.520000,21.900000,23.340000,-41.411,24.005,-76.592,,walk
2025-10-23T12:08:28.992746,14601,291,-2.920926,-6.538864,1.757344,-2.664016,4.820845,5.382910,-0.256910,-11.359709,-3.625566,-0.756938,2.418797,-1.108415,19.260000,26.459999,15.240000,-28.750,23.335,-74.957,,walk
2025-10-23T12:08:29.042321,14651,292,-2.741361,-7.611466,0.397437,0.175380,2.625318,0.436129,-2.916741,-10.236784,-0.038692,1.589395,-0.088194,0.485943,19.260000,26.459999,15.240000,-21.544,19.782,-87.011,,walk
2025-10-23T12:08:29.092113,14701,293,-3.881001,-9.490914,1.034295,0.175380,2.625318,0.436129,-4.056381,-12.116232,0.598166,1.589395,-0.088194,0.485943,19.260000,26.459999,15.240000,-22.341,22.122,-83.781,,walk
2025-10-23T12:08:29.143235,14752,294,-2.633622,-8.945037,-0.093374,0.175380,2.625318,0.436129,-2.809002,-11.570355,-0.529503,1.589395,-0.088194,0.485943,19.260000,26.459999,15.240000,-21.348,16.405,-90.598,,walk
2025-10-23T12:08:29.191496,14800,295,-2.353500,-13.209110,-0.055067,0.175380,2.625318,0.436129,-2.528880,-15.834428,-0.491196,1.589395,-0.088194,0.485943,20.160000,29.160000,9.300000,-14.358,10.102,-90.239,,walk
2025-10-23T12:08:29.241645,14850,296,1.520318,-14.042293,-5.291485,2.538219,-5.661154,-2.107296,-1.017901,-8.381139,-3.184189,0.809931,0.023595,0.564745,20.160000,29.160000,9.300000,-0.831,-5.785,-110.648,,walk
2025-10-23T12:08:29.292350,14901,297,3.327940,-11.181221,-5.583578,2.538219,-5.661154,-2.107296,0.789722,-5.520067,-3.476282,0.809931,0.023595,0.564745,20.160000,29.160000,9.300000,1.162,-14.911,-116.536,,walk
2025-10-23T12:08:29.341895,14950,298,-2.073379,-14.284106,-1.783680,2.538219,-5.661154,-2.107296,-4.611597,-8.622952,0.323615,0.809931,0.023595,0.564745,20.160000,29.160000,9.300000,-7.149,8.196,-97.118,,walk
2025-10-23T12:08:29.392719,15001,299,-8.463802,-16.436792,10.374375,-5.391033,-7.235636,11.812046,-3.072770,-9.201157,-1.437671,-2.760576,-2.821205,-0.353996,16.139999,26.039999,14.759999,-43.875,23.531,-57.741,,walk
2025-10-23T12:08:29.441511,15050,300,-2.913743,-6.622661,-8.626608,-5.391033,-7.235636,11.812046,2.477289,0.612975,-20.438654,-2.760576,-2.821205,-0.353996,16.139999,26.039999,14.759999,36.793,14.998,-142.486,,walk
2025-10-23T12:08:29.492273,15101,301,-0.751779,-7.072771,0.299275,-5.391033,-7.235636,11.812046,4.639253,0.162865,-11.512771,-2.760576,-2.821205,-0.353996,16.139999,26.039999,14.759999,-38.611,6.062,-87.577,,walk
2025-10-23T12:08:29.542381,15151,302,-2.262521,-6.282684,2.540248,-5.391033,-7.235636,11.812046,3.128512,0.952951,-9.271798,-2.760576,-2.821205,-0.353996,16.139999,26.039999,14.759999,-42.014,18.462,-67.985,,walk
2025-10-23T12:08:29.591669,15200,303,-5.559636,-2.908955,2.726996,-2.882386,4.327750,6.644030,-2.677250,-7.236705,-3.917034,-1.166218,-2.022193,-0.997848,10.200000,16.559999,21.480000,-31.629,54.352,-46.849,,walk
2025-10-23T12:08:29.642084,15251,304,-4.589684,-2.628834,0.663194,-2.882386,4.327750,6.644030,-1.707299,-6.956583,-5.980836,-1.166218,-2.022193,-0.997848,10.200000,16.559999,21.480000,-14.509,59.429,-75.841,,walk
2025-10-23T12:08:29.691672,15300,305,-4.783615,-9.150938,-13.458107,-2.882386,4.327750,6.644030,-1.901229,-13.478688,-20.102137,-1.166218,-2.022193,-0.997848,10.200000,16.559999,21.480000,13.227,16.380,-145.786,,walk
2025-10-23T12:08:29.742325,15351,306,-0.430956,-17.930775,-6.993762,-2.882386,4.327750,6.644030,2.451429,-22.258524,-13.637792,-1.166218,-2.022193,-0.997848,10.200000,16.559999,21.480000,-52.220,1.283,-111.308,,walk
2025-10-23T12:08:29.791665,15400,307,-9.040805,-12.885893,7.089530,1.232274,0.824668,0.395576,-10.273079,-13.710561,6.693954,0.959593,-0.280005,-0.416305,18.359999,12.540000,19.260000,-24.999,31.580,-61.181,,walk
2025-10-23T12:08:29.842335,15451,308,-2.896984,-8.384793,-2.403779,1.232274,0.824668,0.395576,-4.129258,-9.209461,-2.799355,0.959593,-0.280005,-0.416305,18.359999,12.540000,19.260000,-20.001,18.373,-105.997,,walk
2025-10-23T12:08:29.891783,15500,309,-3.418920,-1.403002,2.059013,1.232274,0.824668,0.395576,-4.651194,-2.227670,1.663437,0.959593,-0.280005,-0.416305,18.359999,12.540000,19.260000,-17.654,53.917,-34.270,,walk
2025-10-23T12:08:29.942209,15551,310,-3.983952,-9.426271,2.494758,-0.912760,-0.240791,4.032594,-3.071192,-9.185480,-1.537836,1.175228,-1.620855,0.510989,18.359999,12.540000,19.260000,-29.489,22.224,-75.176,,walk
2025-10-23T12:08:29.992287,15601,311,-3.643975,-7.154174,2.061408,-0.912760,-0.240791,4.032594,-2.731215,-6.913383,-1.971187,1.175228,-1.620855,0.510989,21.359999,18.660000,13.679999,-17.511,26.079,-73.926,,walk
2025-10-23T12:08:30.041423,15650,312,-2.339135,-6.866870,0.366313,-0.912760,-0.240791,4.032594,-1.426375,-6.626079,-3.666281,1.175228,-1.620855,0.510989,21.359999,18.660000,13.679999,-15.992,18.786,-86.946,,walk
2025-10-23T12:08:30.092076,15701,313,-3.931279,-10.204387,0.790087,-0.912760,-0.240791,4.032594,-3.018519,-9.963595,-3.242508,1.175228,-1.620855,0.510989,21.359999,18.660000,13.679999,-14.740,21.012,-85.573,,walk
2025-10-23T12:08:30.143032,15752,314,-2.832341,-9.878776,0.605733,0.286841,-1.113400,0.308522,-3.119182,-8.765375,0.297211,1.297401,-0.200593,0.562912,21.359999,18.660000,13.679999,-19.077,15.970,-86.491,,walk
2025-10-23T12:08:30.191711,15800,315,-2.149993,-11.782166,-0.835576,0.286841,-1.113400,0.308522,-2.436834,-10.668765,-1.144098,1.297401,-0.200593,0.562912,22.680000,22.740000,8.040000,-5.364,10.316,-94.057,,walk
2025-10-23T12:08:30.241698,15850,316,-0.124498,-13.158832,-1.187524,0.286841,-1.113400,0.308522,-0.411340,-12.045431,-1.496046,1.297401,-0.200593,0.562912,22.680000,22.740000,8.040000,-14.182,0.540,-95.157,,walk
2025-10-23T12:08:30.291698,15900,317,1.941698,-12.483667,-3.531447,6.237360,-3.791744,-5.003849,-4.295662,-8.691923,1.472401,-1.967062,0.815276,-0.443794,22.680000,22.740000,8.040000,-12.456,-8.512,-105.795,,walk
2025-10-23T12:08:30.343253,15952,318,-2.636016,-13.156438,-6.241983,6.237360,-3.791744,-5.003849,-8.873376,-9.364694,-1.238134,-1.967062,0.815276,-0.443794,22.680000,22.740000,8.040000,14.743,10.261,-115.382,,walk
2025-10-23T12:08:30.392095,16001,319,-4.707001,-16.458342,5.265149,6.237360,-3.791744,-5.003849,-10.944360,-12.666597,10.268997,-1.967062,0.815276,-0.443794,18.420000,24.119999,8.700000,-28.151,15.237,-72.260,,walk
2025-10-23T12:08:30.441636,16050,320,-4.707001,-16.458342,5.265149,6.237360,-3.791744,-5.003849,-10.944360,-12.666597,10.268997,-1.967062,0.815276,-0.443794,18.420000,24.119999,8.700000,-28.151,15.237,-72.260,,walk
2025-10-23T12:08:30.491763,16100,321,-0.486023,-6.471827,-2.090138,2.166758,2.580502,0.590966,-2.652781,-9.052328,-2.681104,-1.737377,2.569070,-1.321607,18.420000,24.119999,8.700000,1.220,4.088,-107.898,,walk
2025-10-23T12:08:30.541719,16150,322,-0.486023,-6.471827,-2.090138,2.166758,2.580502,0.590966,-2.652781,-9.052328,-2.681104,-1.737377,2.569070,-1.321607,18.420000,24.119999,8.700000,1.220,4.088,-107.898,,walk
2025-10-23T12:08:30.591814,16200,323,-0.486023,-6.471827,-2.090138,2.166758,2.580502,0.590966,-2.652781,-9.052328,-2.681104,-1.737377,2.569070,-1.321607,5.280000,22.799999,15.660000,-49.597,4.088,-107.898,,walk
2025-10-23T12:08:30.643515,16252,324,-0.486023,-6.471827,-2.090138,2.166758,2.580502,0.590966,-2.652781,-9.052328,-2.681104,-1.737377,2.569070,-1.321607,5.280000,22.799999,15.660000,-49.597,4.088,-107.898,,walk
2025-10-23T12:08:30.692016,16301,325,-4.364630,-4.000711,-0.555455,1.041924,2.152129,2.321527,-5.406554,-6.152840,-2.876982,-0.154014,-1.739362,0.011912,5.280000,22.799999,15.660000,-13.288,47.218,-97.904,,walk
2025-10-23T12:08:30.741806,16350,326,-4.364630,-4.000711,-0.555455,1.041924,2.152129,2.321527,-5.406554,-6.152840,-2.876982,-0.154014,-1.739362,0.011912,5.280000,22.799999,15.660000,-13.288,47.218,-97.904,,walk
2025-10-23T12:08:30.792304,16401,327,-4.364630,-4.000711,-0.555455,1.041924,2.152129,2.321527,-5.406554,-6.152840,-2.876982,-0.154014,-1.739362,0.011912,8.760000,20.699999,15.719999,-4.449,47.218,-97.904,,walk
2025-10-23T12:08:30.842239,16451,328,-9.423877,-23.420679,3.833117,-6.990324,-14.359826,6.687739,-2.433553,-9.060853,-2.854622,5.105536,-1.517618,3.033251,8.760000,20.699999,15.719999,-46.262,21.658,-80.705,,walk
2025-10-23T12:08:30.893618,16502,329,-9.423877,-23.420679,3.833117,-6.990324,-14.359826,6.687739,-2.433553,-9.060853,-2.854622,5.105536,-1.517618,3.033251,8.760000,20.699999,15.719999,-46.262,21.658,-80.705,,walk
2025-10-23T12:08:30.941770,16550,330,-9.423877,-23.420679,3.833117,-6.990324,-14.359826,6.687739,-2.433553,-9.060853,-2.854622,5.105536,-1.517618,3.033251,8.760000,20.699999,15.719999,-46.262,21.658,-80.705,,walk
2025-10-23T12:08:30.992089,16601,331,-9.423877,-23.420679,3.833117,-6.990324,-14.359826,6.687739,-2.433553,-9.060853,-2.854622,5.105536,-1.517618,3.033251,11.820000,24.539999,4.740000,-17.462,21.658,-80.705,,walk
2025-10-23T12:08:31.043305,16652,332,-3.830723,-7.331345,1.786075,-0.510958,1.864532,2.550911,-3.319765,-9.195877,-0.764836,1.398194,0.266108,-0.005803,11.820000,24.539999,4.740000,-20.396,26.915,-76.308,,walk
2025-10-23T12:08:31.092732,16701,333,-3.830723,-7.331345,1.786075,-0.510958,1.864532,2.550911,-3.319765,-9.195877,-0.764836,1.398194,0.266108,-0.005803,11.820000,24.539999,4.740000,-20.396,26.915,-76.308,,walk
2025-10-23T12:08:31.142353,16751,334,-3.830723,-7.331345,1.786075,-0.510958,1.864532,2.550911,-3.319765,-9.195877,-0.764836,1.398194,0.266108,-0.005803,11.820000,24.539999,4.740000,-20.396,26.915,-76.308,,walk
2025-10-23T12:08:31.191604,16800,335,-2.525883,-10.597036,-1.096544,1.446632,-1.761696,-2.621662,-3.972514,-8.835340,1.525117,1.547245,1.132315,0.606895,11.219999,27.299999,-5.280000,47.256,13.338,-95.908,,walk
2025-10-23T12:08:31.242732,16851,336,-2.525883,-10.597036,-1.096544,1.446632,-1.761696,-2.621662,-3.972514,-8.835340,1.525117,1.547245,1.132315,0.606895,11.219999,27.299999,-5.280000,47.256,13.338,-95.908,,walk
2025-10-23T12:08:31.292268,16901,337,-2.525883,-10.597036,-1.096544,1.446632,-1.761696,-2.621662,-3.972514,-8.835340,1.525117,1.547245,1.132315,0.606895,11.219999,27.299999,-5.280000,47.256,13.338,-95.908,,walk
2025-10-23T12:08:31.342992,16952,338,-2.525883,-10.597036,-1.096544,1.446632,-1.761696,-2.621662,-3.972514,-8.835340,1.525117,1.547245,1.132315,0.606895,11.219999,27.299999,-5.280000,47.256,13.338,-95.908,,walk
2025-10-23T12:08:31.391764,17000,339,-3.852271,-17.169418,4.913201,-0.377572,-8.027293,5.632884,-3.474699,-9.142125,-0.719683,-3.849749,-3.318449,-1.424232,10.500000,29.160000,-9.480000,20.044,12.173,-74.031,,walk
2025-10-23T12:08:31.442716,17051,340,-3.852271,-17.169418,4.913201,-0.377572,-8.027293,5.632884,-3.474699,-9.142125,-0.719683,-3.849749,-3.318449,-1.424232,10.500000,29.160000,-9.480000,20.044,12.173,-74.031,,walk
2025-10-23T12:08:31.493280,17102,341,-3.852271,-17.169418,4.913201,-0.377572,-8.027293,5.632884,-3.474699,-9.142125,-0.719683,-3.849749,-3.318449,-1.424232,10.500000,29.160000,-9.480000,20.044,12.173,-74.031,,walk
2025-10-23T12:08:31.541953,17151,342,-3.852271,-17.169418,4.913201,-0.377572,-8.027293,5.632884,-3.474699,-9.142125,-0.719683,-3.849749,-3.318449,-1.424232,10.500000,29.160000,-9.480000,20.044,12.173,-74.031,,walk
2025-10-23T12:08:31.591769,17200,343,-2.808398,-6.012140,2.346318,-1.102836,2.860421,6.159294,-1.705562,-8.872561,-3.812976,-1.207146,-1.204244,-1.633759,-0.480000,31.320000,-0.180000,-92.569,23.517,-68.681,,walk
2025-10-23T12:08:31.643211,17252,344,-2.808398,-6.012140,2.346318,-1.102836,2.860421,6.159294,-1.705562,-8.872561,-3.812976,-1.207146,-1.204244,-1.633759,-0.480000,31.320000,-0.180000,-92.569,23.517,-68.681,,walk
2025-10-23T12:08:31.691809,17300,345,-2.808398,-6.012140,2.346318,-1.102836,2.860421,6.159294,-1.705562,-8.872561,-3.812976,-1.207146,-1.204244,-1.633759,-0.480000,31.320000,-0.180000,-92.569,23.517,-68.681,,walk
2025-10-23T12:08:31.742739,17351,346,3.818752,-18.287512,-22.508490,5.795964,-9.865983,-17.889118,-1.977212,-8.421529,-4.619371,-0.127136,-0.335594,0.688751,-0.480000,31.320000,-0.180000,91.060,-7.501,-140.907,,walk
2025-10-23T12:08:31.791728,17400,347,3.818752,-18.287512,-22.508490,5.795964,-9.865983,-17.889118,-1.977212,-8.421529,-4.619371,-0.127136,-0.335594,0.688751,-3.840000,26.639999,5.820000,104.744,-7.501,-140.907,,walk
2025-10-23T12:08:31.841941,17451,348,3.818752,-18.287512,-22.508490,5.795964,-9.865983,-17.889118,-1.977212,-8.421529,-4.619371,-0.127136,-0.335594,0.688751,-3.840000,26.639999,5.820000,104.744,-7.501,-140.907,,walk
2025-10-23T12:08:31.893171,17502,349,3.818752,-18.287512,-22.508490,5.795964,-9.865983,-17.889118,-1.977212,-8.421529,-4.619371,-0.127136,-0.335594,0.688751,-3.840000,26.639999,5.820000,104.744,-7.501,-140.907,,walk
2025-10-23T12:08:31.942905,17552,350,-3.335123,0.165200,3.198653,-0.398071,9.214884,5.574936,-2.937052,-9.049684,-2.376282,0.521603,-0.185321,-0.518930,-3.840000,26.639999,5.820000,-86.648,46.158,2.957,,walk
2025-10-23T12:08:31.992889,17601,351,-3.335123,0.165200,3.198653,-0.398071,9.214884,5.574936,-2.937052,-9.049684,-2.376282,0.521603,-0.185321,-0.518930,-1.140000,28.920000,-2.520000,-95.150,46.158,2.957,,walk
2025-10-23T12:08:32.043528,17652,352,-3.335123,0.165200,3.198653,-0.398071,9.214884,5.574936,-2.937052,-9.049684,-2.376282,0.521603,-0.185321,-0.518930,-1.140000,28.920000,-2.520000,-95.150,46.158,2.957,,walk
2025-10-23T12:08:32.092360,17701,353,-2.487576,-7.302615,1.058237,1.059854,1.839884,1.083171,-3.547430,-9.142499,-0.024934,1.521589,0.439594,0.558636,-1.140000,28.920000,-2.520000,-131.317,18.630,-81.755,,walk
2025-10-23T12:08:32.142830,17751,354,-2.487576,-7.302615,1.058237,1.059854,1.839884,1.083171,-3.547430,-9.142499,-0.024934,1.521589,0.439594,0.558636,-1.140000,28.920000,-2.520000,-131.317,18.630,-81.755,,walk
2025-10-23T12:08:32.191693,17800,355,-2.487576,-7.302615,1.058237,1.059854,1.839884,1.083171,-3.547430,-9.142499,-0.024934,1.521589,0.439594,0.558636,1.320000,28.500000,-9.179999,108.804,18.630,-81.755,,walk
2025-10-23T12:08:32.243827,17852,356,-2.487576,-7.302615,1.058237,1.059854,1.839884,1.083171,-3.547430,-9.142499,-0.024934,1.521589,0.439594,0.558636,1.320000,28.500000,-9.179999,108.804,18.630,-81.755,,walk
2025-10-23T12:08:32.291774,17900,357,-1.285686,-13.199533,-0.612916,3.094574,-4.671298,-2.675066,-4.380260,-8.528235,2.062150,0.197844,1.762117,-0.210443,1.320000,28.500000,-9.179999,87.700,5.557,-92.659,,walk
2025-10-23T12:08:32.341888,17950,358,-1.285686,-13.199533,-0.612916,3.094574,-4.671298,-2.675066,-4.380260,-8.528235,2.062150,0.197844,1.762117,-0.210443,1.320000,28.500000,-9.179999,87.700,5.557,-92.659,,walk
2025-10-23T12:08:32.391741,18000,359,-1.285686,-13.199533,-0.612916,3.094574,-4.671298,-2.675066,-4.380260,-8.528235,2.062150,0.197844,1.762117,-0.210443,2.400000,27.959999,-10.380000,83.340,5.557,-92.659,,walk
2025-10-23T12:08:32.442479,18051,360,-5.327398,-10.922647,5.866094,-1.997718,-1.867616,7.623791,-3.329680,-9.055032,-1.757698,0.149586,5.840253,-0.105374,2.400000,27.959999,-10.380000,-115.366,23.253,-61.762,,walk
2025-10-23T12:08:32.492227,18101,361,-5.327398,-10.922647,5.866094,-1.997718,-1.867616,7.623791,-3.329680,-9.055032,-1.757698,0.149586,5.840253,-0.105374,2.400000,27.959999,-10.380000,-115.366,23.253,-61.762,,walk
2025-10-23T12:08:32.542583,18151,362,-5.327398,-10.922647,5.866094,-1.997718,-1.867616,7.623791,-3.329680,-9.055032,-1.757698,0.149586,5.840253,-0.105374,2.400000,27.959999,-10.380000,-115.366,23.253,-61.762,,walk
2025-10-23T12:08:32.591692,18200,363,-5.327398,-10.922647,5.866094,-1.997718,-1.867616,7.623791,-3.329680,-9.055032,-1.757698,0.149586,5.840253,-0.105374,-5.640000,29.099998,3.840000,-101.012,23.253,-61.762,,walk
2025-10-23T12:08:32.643032,18252,364,-4.367024,-3.124433,3.363853,-3.178743,5.422584,8.022860,-1.188281,-8.547017,-4.659006,-1.406288,-2.082058,-0.786489,-5.640000,29.099998,3.840000,-93.187,43.568,-42.887,,walk
2025-10-23T12:08:32.692703,18301,365,-4.367024,-3.124433,3.363853,-3.178743,5.422584,8.022860,-1.188281,-8.547017,-4.659006,-1.406288,-2.082058,-0.786489,-5.640000,29.099998,3.840000,-93.187,43.568,-42.887,,walk
2025-10-23T12:08:32.742819,18351,366,-4.367024,-3.124433,3.363853,-3.178743,5.422584,8.022860,-1.188281,-8.547017,-4.659006,-1.406288,-2.082058,-0.786489,-5.640000,29.099998,3.840000,-93.187,43.568,-42.887,,walk
2025-10-23T12:08:32.791759,18400,367,-4.367024,-3.124433,3.363853,-3.178743,5.422584,8.022860,-1.188281,-8.547017,-4.659006,-1.406288,-2.082058,-0.786489,-2.760000,25.019999,12.599999,-75.497,43.568,-42.887,,walk
2025-10-23T12:08:32.845709,18454,368,-3.926491,-9.040805,1.618480,-1.812985,-0.369134,5.681180,-2.113506,-8.671671,-4.062700,1.648038,-0.632475,0.250760,-2.760000,25.019999,12.599999,-81.858,23.147,-79.850,,walk
2025-10-23T12:08:32.892329,18501,369,-3.926491,-9.040805,1.618480,-1.812985,-0.369134,5.681180,-2.113506,-8.671671,-4.062700,1.648038,-0.632475,0.250760,-2.760000,25.019999,12.599999,-81.858,23.147,-79.850,,walk
2025-10-23T12:08:32.942104,18551,370,-3.926491,-9.040805,1.618480,-1.812985,-0.369134,5.681180,-2.113506,-8.671671,-4.062700,1.648038,-0.632475,0.250760,-2.760000,25.019999,12.599999,-81.858,23.147,-79.850,,walk
2025-10-23T12:08:32.992442,18601,371,-3.940856,-12.464514,3.169923,-0.812923,-3.313807,4.798009,-3.127933,-9.150706,-1.628086,1.418353,0.354073,0.638049,3.300000,29.639999,7.080000,-67.978,17.036,-75.731,,walk
2025-10-23T12:08:33.041874,18650,372,-3.940856,-12.464514,3.169923,-0.812923,-3.313807,4.798009,-3.127933,-9.150706,-1.628086,1.418353,0.354073,0.638049,3.300000,29.639999,7.080000,-67.978,17.036,-75.731,,walk
2025-10-23T12:08:33.092936,18702,373,-3.940856,-12.464514,3.169923,-0.812923,-3.313807,4.798009,-3.127933,-9.150706,-1.628086,1.418353,0.354073,0.638049,3.300000,29.639999,7.080000,-67.978,17.036,-75.731,,walk
2025-10-23T12:08:33.141985,18751,374,-3.940856,-12.464514,3.169923,-0.812923,-3.313807,4.798009,-3.127933,-9.150706,-1.628086,1.418353,0.354073,0.638049,3.300000,29.639999,7.080000,-67.978,17.036,-75.731,,walk
2025-10-23T12:08:33.192252,18801,375,-2.815581,-8.760683,-0.524330,1.041659,0.202525,-1.500438,-3.857240,-8.963208,0.976108,2.087250,0.398055,0.641103,9.840000,32.219997,-2.880000,42.069,17.787,-93.425,,walk
2025-10-23T12:08:33.242323,18851,376,-2.815581,-8.760683,-0.524330,1.041659,0.202525,-1.500438,-3.857240,-8.963208,0.976108,2.087250,0.398055,0.641103,9.840000,32.219997,-2.880000,42.069,17.787,-93.425,,walk
2025-10-23T12:08:33.291854,18900,377,-2.815581,-8.760683,-0.524330,1.041659,0.202525,-1.500438,-3.857240,-8.963208,0.976108,2.087250,0.398055,0.641103,9.840000,32.219997,-2.880000,42.069,17.787,-93.425,,walk
2025-10-23T12:08:33.341874,18950,378,-2.815581,-8.760683,-0.524330,1.041659,0.202525,-1.500438,-3.857240,-8.963208,0.976108,2.087250,0.398055,0.641103,9.840000,32.219997,-2.880000,42.069,17.787,-93.425,,walk
2025-10-23T12:08:33.391724,19000,379,-2.501941,-15.835849,2.015918,1.408458,-6.842660,2.052600,-3.910398,-8.993189,-0.036682,-3.985972,0.135383,-1.448056,12.540000,33.419998,-4.500000,10.258,8.907,-82.745,,walk
2025-10-23T12:08:33.442893,19051,380,-2.501941,-15.835849,2.015918,1.408458,-6.842660,2.052600,-3.910398,-8.993189,-0.036682,-3.985972,0.135383,-1.448056,12.540000,33.419998,-4.500000,10.258,8.907,-82.745,,walk
2025-10-23T12:08:33.492702,19101,381,-2.501941,-15.835849,2.015918,1.408458,-6.842660,2.052600,-3.910398,-8.993189,-0.036682,-3.985972,0.135383,-1.448056,12.540000,33.419998,-4.500000,10.258,8.907,-82.745,,walk
2025-10-23T12:08:33.543269,19152,382,-2.226608,-7.441478,2.181118,-0.363843,1.536084,5.660132,-1.862765,-8.977562,-3.479015,-1.346423,-1.022207,-1.934916,12.540000,33.419998,-4.500000,-10.113,16.021,-73.664,,walk
2025-10-23T12:08:33.592013,19201,383,-2.226608,-7.441478,2.181118,-0.363843,1.536084,5.660132,-1.862765,-8.977562,-3.479015,-1.346423,-1.022207,-1.934916,10.559999,32.579998,13.920000,-53.927,16.021,-73.664,,walk
2025-10-23T12:08:33.641821,19250,384,-2.226608,-7.441478,2.181118,-0.363843,1.536084,5.660132,-1.862765,-8.977562,-3.479015,-1.346423,-1.022207,-1.934916,10.559999,32.579998,13.920000,-53.927,16.021,-73.664,,walk
2025-10-23T12:08:33.691728,19300,385,-2.226608,-7.441478,2.181118,-0.363843,1.536084,5.660132,-1.862765,-8.977562,-3.479015,-1.346423,-1.022207,-1.934916,10.559999,32.579998,13.920000,-53.927,16.021,-73.664,,walk
2025-10-23T12:08:33.742926,19352,386,-2.288857,-9.917083,-16.082451,-0.408515,-1.488231,-11.436062,-1.880342,-8.428852,-4.646389,0.311465,-1.245173,0.250149,10.559999,32.579998,13.920000,60.103,6.907,-148.340,,walk
2025-10-23T12:08:33.792252,19401,387,-2.288857,-9.917083,-16.082451,-0.408515,-1.488231,-11.436062,-1.880342,-8.428852,-4.646389,0.311465,-1.245173,0.250149,21.180000,34.139999,18.119999,42.082,6.907,-148.340,,walk
2025-10-23T12:08:33.842454,19451,388,-2.288857,-9.917083,-16.082451,-0.408515,-1.488231,-11.436062,-1.880342,-8.428852,-4.646389,0.311465,-1.245173,0.250149,21.180000,34.139999,18.119999,42.082,6.907,-148.340,,walk
2025-10-23T12:08:33.892676,19501,389,-4.350265,-1.414973,4.656722,-1.388563,7.621011,7.054521,-2.961702,-9.035984,-2.397799,-0.385532,0.068799,-0.722959,21.180000,34.139999,18.119999,-49.380,41.792,-16.902,,walk
2025-10-23T12:08:33.941588,19550,390,-4.350265,-1.414973,4.656722,-1.388563,7.621011,7.054521,-2.961702,-9.035984,-2.397799,-0.385532,0.068799,-0.722959,21.180000,34.139999,18.119999,-49.380,41.792,-16.902,,walk
2025-10-23T12:08:33.992995,19602,391,-4.350265,-1.414973,4.656722,-1.388563,7.621011,7.054521,-2.961702,-9.035984,-2.397799,-0.385532,0.068799,-0.722959,31.199999,40.619999,11.700000,-48.702,41.792,-16.902,,walk
2025-10-23T12:08:34.043027,19652,392,-4.350265,-1.414973,4.656722,-1.388563,7.621011,7.054521,-2.961702,-9.035984,-2.397799,-0.385532,0.068799,-0.722959,31.199999,40.619999,11.700000,-48.702,41.792,-16.902,,walk
2025-10-23T12:08:34.093632,19702,393,-3.126827,-7.893982,0.433351,0.283512,1.297773,0.659938,-3.410340,-9.191755,-0.226588,1.758605,0.677220,0.465785,31.199999,40.619999,11.700000,-2.805,21.579,-86.858,,walk
2025-10-23T12:08:34.142291,19751,394,-3.126827,-7.893982,0.433351,0.283512,1.297773,0.659938,-3.410340,-9.191755,-0.226588,1.758605,0.677220,0.465785,31.199999,40.619999,11.700000,-2.805,21.579,-86.858,,walk
2025-10-23T12:08:34.192124,19801,395,-3.126827,-7.893982,0.433351,0.283512,1.297773,0.659938,-3.410340,-9.191755,-0.226588,1.758605,0.677220,0.465785,35.759998,44.759998,1.860000,14.776,21.579,-86.858,,walk
2025-10-23T12:08:34.242545,19851,396,-3.126827,-7.893982,0.433351,0.283512,1.297773,0.659938,-3.410340,-9.191755,-0.226588,1.758605,0.677220,0.465785,35.759998,44.759998,1.860000,14.776,21.579,-86.858,,walk
2025-10-23T12:08:34.292471,19901,397,-1.110910,-13.577817,-1.249773,3.252656,-5.012093,-3.188300,-4.363565,-8.565724,1.938526,-0.267024,1.658270,-0.245262,35.759998,44.759998,1.860000,8.185,4.658,-95.259,,walk
2025-10-23T12:08:34.343369,19952,398,-1.110910,-13.577817,-1.249773,3.252656,-5.012093,-3.188300,-4.363565,-8.565724,1.938526,-0.267024,1.658270,-0.245262,35.759998,44.759998,1.860000,8.185,4.658,-95.259,,walk
2025-10-23T12:08:34.392639,20001,399,-1.110910,-13.577817,-1.249773,3.252656,-5.012093,-3.188300,-4.363565,-8.565724,1.938526,-0.267024,1.658270,-0.245262,35.219997,47.459999,10.260000,-4.748,4.658,-95.259,,walk
2025-10-23T12:08:34.443250,20052,400,-4.556166,-7.750330,2.580950,-1.253313,1.233745,4.713468,-3.302853,-8.984075,-2.132518,0.798935,6.693632,-0.737620,35.219997,47.459999,10.260000,-11.415,29.151,-71.582,,walk
2025-10-23T12:08:34.494007,20103,401,-4.556166,-7.750330,2.580950,-1.253313,1.233745,4.713468,-3.302853,-8.984075,-2.132518,0.798935,6.693632,-0.737620,35.219997,47.459999,10.260000,-11.415,29.151,-71.582,,walk
2025-10-23T12:08:34.543116,20152,402,-4.556166,-7.750330,2.580950,-1.253313,1.233745,4.713468,-3.302853,-8.984075,-2.132518,0.798935,6.693632,-0.737620,35.219997,47.459999,10.260000,-11.415,29.151,-71.582,,walk
2025-10-23T12:08:34.592230,20201,403,-4.556166,-7.750330,2.580950,-1.253313,1.233745,4.713468,-3.302853,-8.984075,-2.132518,0.798935,6.693632,-0.737620,14.880000,39.959999,29.340000,-47.768,29.151,-71.582,,walk
2025-10-23T12:08:34.643799,20252,404,-5.159804,-0.986411,1.929727,-3.771213,7.704527,6.255149,-1.388591,-8.690938,-4.325423,-1.518077,-2.026469,-0.704022,14.880000,39.959999,29.340000,-46.442,67.217,-27.075,,walk
2025-10-23T12:08:34.691763,20300,405,-5.159804,-0.986411,1.929727,-3.771213,7.704527,6.255149,-1.388591,-8.690938,-4.325423,-1.518077,-2.026469,-0.704022,14.880000,39.959999,29.340000,-46.442,67.217,-27.075,,walk
2025-10-23T12:08:34.742360,20351,406,-5.159804,-0.986411,1.929727,-3.771213,7.704527,6.255149,-1.388591,-8.690938,-4.325423,-1.518077,-2.026469,-0.704022,14.880000,39.959999,29.340000,-46.442,67.217,-27.075,,walk
2025-10-23T12:08:34.791579,20400,407,-7.470209,-10.496480,7.338528,-5.249043,-1.643958,10.925906,-2.221165,-8.852522,-3.587379,2.989498,-2.122986,0.206778,21.600000,34.680000,31.500000,-43.921,30.254,-55.041,,walk
2025-10-23T12:08:34.841823,20450,408,-7.470209,-10.496480,7.338528,-5.249043,-1.643958,10.925906,-2.221165,-8.852522,-3.587379,2.989498,-2.122986,0.206778,21.600000,34.680000,31.500000,-43.921,30.254,-55.041,,walk
2025-10-23T12:08:34.892681,20501,409,-7.470209,-10.496480,7.338528,-5.249043,-1.643958,10.925906,-2.221165,-8.852522,-3.587379,2.989498,-2.122986,0.206778,21.600000,34.680000,31.500000,-43.921,30.254,-55.041,,walk
2025-10-23T12:08:34.943344,20552,410,-7.470209,-10.496480,7.338528,-5.249043,-1.643958,10.925906,-2.221165,-8.852522,-3.587379,2.989498,-2.122986,0.206778,21.600000,34.680000,31.500000,-43.921,30.254,-55.041,,walk
2025-10-23T12:08:34.992886,20601,411,-5.487810,-10.750265,3.292027,-2.289164,-1.546298,4.399084,-3.198646,-9.203967,-1.107057,1.105590,0.875752,0.057116,24.359999,38.939999,17.459999,-28.714,26.017,-72.974,,walk
2025-10-23T12:08:35.043135,20652,412,-5.487810,-10.750265,3.292027,-2.289164,-1.546298,4.399084,-3.198646,-9.203967,-1.107057,1.105590,0.875752,0.057116,24.359999,38.939999,17.459999,-28.714,26.017,-72.974,,walk
2025-10-23T12:08:35.093,20702,413,-5.487810,-10.750265,3.292027,-2.289164,-1.546298,4.399084,-3.198646,-9.203967,-1.107057,1.105590,0.875752,0.057116,24.359999,38.939999,17.459999,-28.714,26.017,-72.974,,walk
2025-10-23T12:08:35.142594,20751,414,-5.487810,-10.750265,3.292027,-2.289164,-1.546298,4.399084,-3.198646,-9.203967,-1.107057,1.105590,0.875752,0.057116,24.359999,38.939999,17.459999,-28.714,26.017,-72.974,,walk
2025-10-23T12:08:35.192746,20801,415,-2.851494,-9.718364,0.426168,1.046616,-0.777447,-0.591057,-3.898110,-8.940917,1.017225,1.470887,-0.122402,0.507934,27.420000,40.020000,6.420000,-0.412,16.338,-87.489,,walk
2025-10-23T12:08:35.243599,20852,416,-2.851494,-9.718364,0.426168,1.046616,-0.777447,-0.591057,-3.898110,-8.940917,1.017225,1.470887,-0.122402,0.507934,27.420000,40.020000,6.420000,-0.412,16.338,-87.489,,walk
2025-10-23T12:08:35.291733,20900,417,-2.851494,-9.718364,0.426168,1.046616,-0.777447,-0.591057,-3.898110,-8.940917,1.017225,1.470887,-0.122402,0.507934,27.420000,40.020000,6.420000,-0.412,16.338,-87.489,,walk
2025-10-23T12:08:35.342416,20951,418,-1.910573,-15.153502,1.328782,1.931401,-6.132827,1.520666,-3.841974,-9.020675,-0.191884,-3.775223,0.591088,-1.381472,27.420000,40.020000,6.420000,-12.945,7.159,-84.989,,walk
2025-10-23T12:08:35.393368,21002,419,-1.910573,-15.153502,1.328782,1.931401,-6.132827,1.520666,-3.841974,-9.020675,-0.191884,-3.775223,0.591088,-1.381472,23.039999,35.639999,9.960000,-22.732,7.159,-84.989,,walk
2025-10-23T12:08:35.442981,21052,420,-1.910573,-15.153502,1.328782,1.931401,-6.132827,1.520666,-3.841974,-9.020675,-0.191884,-3.775223,0.591088,-1.381472,23.039999,35.639999,9.960000,-22.732,7.159,-84.989,,walk
2025-10-23T12:08:35.492405,21101,421,-1.910573,-15.153502,1.328782,1.931401,-6.132827,1.520666,-3.841974,-9.020675,-0.191884,-3.775223,0.591088,-1.381472,23.039999,35.639999,9.960000,-22.732,7.159,-84.989,,walk
2025-10-23T12:08:35.543337,21152,422,-1.288081,-5.214870,1.915361,-0.197882,3.652656,5.958684,-1.090198,-8.867526,-4.043323,-1.425225,-1.122999,-1.484097,23.039999,35.639999,9.960000,-33.766,13.054,-69.832,,walk
2025-10-23T12:08:35.592098,21201,423,-1.288081,-5.214870,1.915361,-0.197882,3.652656,5.958684,-1.090198,-8.867526,-4.043323,-1.425225,-1.122999,-1.484097,12.540000,33.299999,16.020000,-55.995,13.054,-69.832,,walk
2025-10-23T12:08:35.644385,21253,424,-1.288081,-5.214870,1.915361,-0.197882,3.652656,5.958684,-1.090198,-8.867526,-4.043323,-1.425225,-1.122999,-1.484097,12.540000,33.299999,16.020000,-55.995,13.054,-69.832,,walk
2025-10-23T12:08:35.691777,21300,425,3.033453,-15.582064,-16.551716,4.824322,-6.830242,-12.505909,-1.790868,-8.751822,-4.045807,0.707916,0.118279,1.169502,12.540000,33.299999,16.020000,49.854,-7.601,-136.728,,walk
2025-10-23T12:08:35.741932,21351,426,3.033453,-15.582064,-16.551716,4.824322,-6.830242,-12.505909,-1.790868,-8.751822,-4.045807,0.707916,0.118279,1.169502,12.540000,33.299999,16.020000,49.854,-7.601,-136.728,,walk
2025-10-23T12:08:35.791688,21400,427,3.033453,-15.582064,-16.551716,4.824322,-6.830242,-12.505909,-1.790868,-8.751822,-4.045807,0.707916,0.118279,1.169502,16.020000,37.439999,7.200000,54.486,-7.601,-136.728,,walk
2025-10-23T12:08:35.843288,21452,428,3.033453,-15.582064,-16.551716,4.824322,-6.830242,-12.505909,-1.790868,-8.751822,-4.045807,0.707916,0.118279,1.169502,16.020000,37.439999,7.200000,54.486,-7.601,-136.728,,walk
2025-10-23T12:08:35.892192,21501,429,-5.621885,-3.418920,-0.447716,-2.765899,5.593489,2.158056,-2.855986,-9.012409,-2.605772,1.299845,-3.620217,-0.149357,16.020000,37.439999,7.200000,45.306,58.478,-97.461,,walk
2025-10-23T12:08:35.942930,21552,430,-5.621885,-3.418920,-0.447716,-2.765899,5.593489,2.158056,-2.855986,-9.012409,-2.605772,1.299845,-3.620217,-0.149357,16.020000,37.439999,7.200000,45.306,58.478,-97.461,,walk
2025-10-23T12:08:35.992967,21602,431,-5.621885,-3.418920,-0.447716,-2.765899,5.593489,2.158056,-2.855986,-9.012409,-2.605772,1.299845,-3.620217,-0.149357,20.820000,41.040001,-6.540000,78.592,58.478,-97.461,,walk
2025-10-23T12:08:36.043236,21652,432,-5.621885,-3.418920,-0.447716,-2.765899,5.593489,2.158056,-2.855986,-9.012409,-2.605772,1.299845,-3.620217,-0.149357,20.820000,41.040001,-6.540000,78.592,58.478,-97.461,,walk
2025-10-23T12:08:36.091774,21700,433,-4.340688,-8.195652,0.579397,-0.655639,0.890459,0.397419,-3.685049,-9.086111,0.181978,1.216767,0.531835,0.281914,20.820000,41.040001,-6.540000,39.319,27.848,-85.956,,walk
2025-10-23T12:08:36.142929,21752,434,-4.340688,-8.195652,0.579397,-0.655639,0.890459,0.397419,-3.685049,-9.086111,0.181978,1.216767,0.531835,0.281914,20.820000,41.040001,-6.540000,39.319,27.848,-85.956,,walk
2025-10-23T12:08:36.192101,21801,435,-4.340688,-8.195652,0.579397,-0.655639,0.890459,0.397419,-3.685049,-9.086111,0.181978,1.216767,0.531835,0.281914,21.480000,41.040001,-19.260000,67.475,27.848,-85.956,,walk
2025-10-23T12:08:36.243306,21852,436,0.134075,-14.106936,-2.765303,4.610881,-5.607635,-4.737683,-4.476806,-8.499300,1.972380,0.290085,1.363222,-0.135918,21.480000,41.040001,-19.260000,50.844,-0.534,-101.091,,walk
2025-10-23T12:08:36.292946,21902,437,0.134075,-14.106936,-2.765303,4.610881,-5.607635,-4.737683,-4.476806,-8.499300,1.972380,0.290085,1.363222,-0.135918,21.480000,41.040001,-19.260000,50.844,-0.534,-101.091,,walk
2025-10-23T12:08:36.341741,21950,438,0.134075,-14.106936,-2.765303,4.610881,-5.607635,-4.737683,-4.476806,-8.499300,1.972380,0.290085,1.363222,-0.135918,21.480000,41.040001,-19.260000,50.844,-0.534,-101.091,,walk
2025-10-23T12:08:36.392164,22001,439,0.134075,-14.106936,-2.765303,4.610881,-5.607635,-4.737683,-4.476806,-8.499300,1.972380,0.290085,1.363222,-0.135918,19.139999,45.119999,-9.420000,42.709,-0.534,-101.091,,walk
2025-10-23T12:08:36.442551,22051,440,-5.073613,-8.827721,1.244985,-1.663345,0.144135,3.256448,-3.410268,-8.971856,-2.011463,0.072617,6.503042,-0.294132,19.139999,45.119999,-9.420000,43.032,29.644,-81.972,,walk
2025-10-23T12:08:36.492398,22101,441,-5.073613,-8.827721,1.244985,-1.663345,0.144135,3.256448,-3.410268,-8.971856,-2.011463,0.072617,6.503042,-0.294132,19.139999,45.119999,-9.420000,43.032,29.644,-81.972,,walk
2025-10-23T12:08:36.542730,22151,442,-5.073613,-8.827721,1.244985,-1.663345,0.144135,3.256448,-3.410268,-8.971856,-2.011463,0.072617,6.503042,-0.294132,19.139999,45.119999,-9.420000,43.032,29.644,-81.972,,walk
2025-10-23T12:08:36.592268,22201,443,-5.210082,-1.060631,2.533065,-3.957560,7.672643,6.814554,-1.252522,-8.733275,-4.281488,-1.163775,-2.080836,-0.423635,9.240000,47.160000,16.619999,-66.314,62.207,-22.720,,walk
2025-10-23T12:08:36.643210,22252,444,-5.210082,-1.060631,2.533065,-3.957560,7.672643,6.814554,-1.252522,-8.733275,-4.281488,-1.163775,-2.080836,-0.423635,9.240000,47.160000,16.619999,-66.314,62.207,-22.720,,walk
2025-10-23T12:08:36.691988,22301,445,-5.210082,-1.060631,2.533065,-3.957560,7.672643,6.814554,-1.252522,-8.733275,-4.281488,-1.163775,-2.080836,-0.423635,9.240000,47.160000,16.619999,-66.314,62.207,-22.720,,walk
2025-10-23T12:08:36.743037,22352,446,-5.210082,-1.060631,2.533065,-3.957560,7.672643,6.814554,-1.252522,-8.733275,-4.281488,-1.163775,-2.080836,-0.423635,9.240000,47.160000,16.619999,-66.314,62.207,-22.720,,walk
2025-10-23T12:08:36.792694,22401,447,-2.272097,-10.096648,5.842152,0.036813,-1.364671,9.662025,-2.308911,-8.731977,-3.819874,2.001118,-1.542664,-0.182343,21.840000,41.639999,24.420000,-55.502,11.022,-59.945,,walk
2025-10-23T12:08:36.843356,22452,448,-2.272097,-10.096648,5.842152,0.036813,-1.364671,9.662025,-2.308911,-8.731977,-3.819874,2.001118,-1.542664,-0.182343,21.840000,41.639999,24.420000,-55.502,11.022,-59.945,,walk
2025-10-23T12:08:36.892221,22501,449,-2.272097,-10.096648,5.842152,0.036813,-1.364671,9.662025,-2.308911,-8.731977,-3.819874,2.001118,-1.542664,-0.182343,21.840000,41.639999,24.420000,-55.502,11.022,-59.945,,walk
2025-10-23T12:08:36.942575,22551,450,-2.272097,-10.096648,5.842152,0.036813,-1.364671,9.662025,-2.308911,-8.731977,-3.819874,2.001118,-1.542664,-0.182343,21.840000,41.639999,24.420000,-55.502,11.022,-59.945,,walk
2025-10-23T12:08:36.992922,22602,451,-3.512294,-9.572318,2.971204,0.144379,-0.570516,4.300186,-3.656673,-9.001802,-1.328981,1.269912,0.297873,-0.041844,38.700001,43.500000,11.280000,-15.071,19.312,-72.756,,walk
2025-10-23T12:08:37.042323,22651,452,-3.512294,-9.572318,2.971204,0.144379,-0.570516,4.300186,-3.656673,-9.001802,-1.328981,1.269912,0.297873,-0.041844,38.700001,43.500000,11.280000,-15.071,19.312,-72.756,,walk
2025-10-23T12:08:37.092445,22701,453,-3.512294,-9.572318,2.971204,0.144379,-0.570516,4.300186,-3.656673,-9.001802,-1.328981,1.269912,0.297873,-0.041844,38.700001,43.500000,11.280000,-15.071,19.312,-72.756,,walk
2025-10-23T12:08:37.142055,22751,454,-3.122039,-8.882788,-0.409408,0.903175,-0.008121,-1.508524,-4.025214,-8.874667,1.099116,1.255252,-0.285503,0.839023,38.700001,43.500000,11.280000,5.925,19.346,-92.639,,walk
2025-10-23T12:08:37.192727,22801,455,-3.122039,-8.882788,-0.409408,0.903175,-0.008121,-1.508524,-4.025214,-8.874667,1.099116,1.255252,-0.285503,0.839023,40.860001,43.379997,-2.340000,25.135,19.346,-92.639,,walk
2025-10-23T12:08:37.242335,22851,456,-3.122039,-8.882788,-0.409408,0.903175,-0.008121,-1.508524,-4.025214,-8.874667,1.099116,1.255252,-0.285503,0.839023,40.860001,43.379997,-2.340000,25.135,19.346,-92.639,,walk
2025-10-23T12:08:37.293153,22902,457,-3.122039,-8.882788,-0.409408,0.903175,-0.008121,-1.508524,-4.025214,-8.874667,1.099116,1.255252,-0.285503,0.839023,40.860001,43.379997,-2.340000,25.135,19.346,-92.639,,walk
2025-10-23T12:08:37.342120,22951,458,-3.268085,-15.610794,2.042254,0.878415,-6.725045,2.184192,-4.146500,-8.885749,-0.141938,-3.804545,0.481133,-1.476767,40.860001,43.379997,-2.340000,7.036,11.727,-82.547,,walk
2025-10-23T12:08:37.391772,23000,459,-3.268085,-15.610794,2.042254,0.878415,-6.725045,2.184192,-4.146500,-8.885749,-0.141938,-3.804545,0.481133,-1.476767,26.279999,40.379997,7.680000,-15.166,11.727,-82.547,,walk
2025-10-23T12:08:37.442381,23051,460,-3.268085,-15.610794,2.042254,0.878415,-6.725045,2.184192,-4.146500,-8.885749,-0.141938,-3.804545,0.481133,-1.476767,26.279999,40.379997,7.680000,-15.166,11.727,-82.547,,walk
2025-10-23T12:08:37.492009,23101,461,-1.556231,-7.020099,1.936909,0.484332,1.896094,5.473515,-2.040563,-8.916193,-3.536605,-1.080086,-0.902477,-1.597718,26.279999,40.379997,7.680000,-24.919,12.063,-74.575,,walk
2025-10-23T12:08:37.543237,23152,462,-1.556231,-7.020099,1.936909,0.484332,1.896094,5.473515,-2.040563,-8.916193,-3.536605,-1.080086,-0.902477,-1.597718,26.279999,40.379997,7.680000,-24.919,12.063,-74.575,,walk
2025-10-23T12:08:37.592293,23201,463,-1.556231,-7.020099,1.936909,0.484332,1.896094,5.473515,-2.040563,-8.916193,-3.536605,-1.080086,-0.902477,-1.597718,10.020000,36.480000,28.080000,-65.359,12.063,-74.575,,walk
2025-10-23T12:08:37.643588,23252,464,-1.556231,-7.020099,1.936909,0.484332,1.896094,5.473515,-2.040563,-8.916193,-3.536605,-1.080086,-0.902477,-1.597718,10.020000,36.480000,28.080000,-65.359,12.063,-74.575,,walk
2025-10-23T12:08:37.692252,23301,465,-3.794810,-11.231500,-18.026543,-1.725806,-2.725341,-13.606747,-2.069004,-8.506159,-4.419796,-0.135078,-0.956844,0.521374,10.020000,36.480000,28.080000,49.410,10.130,-148.075,,walk
2025-10-23T12:08:37.742637,23351,466,-3.794810,-11.231500,-18.026543,-1.725806,-2.725341,-13.606747,-2.069004,-8.506159,-4.419796,-0.135078,-0.956844,0.521374,10.020000,36.480000,28.080000,49.410,10.130,-148.075,,walk
2025-10-23T12:08:37.791646,23400,467,-3.794810,-11.231500,-18.026543,-1.725806,-2.725341,-13.606747,-2.069004,-8.506159,-4.419796,-0.135078,-0.956844,0.521374,23.639999,26.519999,30.420000,17.221,10.130,-148.075,,walk
2025-10-23T12:08:37.842754,23451,468,-3.794810,-11.231500,-18.026543,-1.725806,-2.725341,-13.606747,-2.069004,-8.506159,-4.419796,-0.135078,-0.956844,0.521374,23.639999,26.519999,30.420000,17.221,10.130,-148.075,,walk
2025-10-23T12:08:37.891745,23500,469,-5.133468,-1.154005,4.273650,-1.943103,7.757822,6.837006,-3.190365,-8.911827,-2.563355,-0.949972,-0.301386,-0.833526,23.639999,26.519999,30.420000,-34.166,49.228,-15.111,,walk
2025-10-23T12:08:37.941858,23550,470,-5.133468,-1.154005,4.273650,-1.943103,7.757822,6.837006,-3.190365,-8.911827,-2.563355,-0.949972,-0.301386,-0.833526,23.639999,26.519999,30.420000,-34.166,49.228,-15.111,,walk
2025-10-23T12:08:37.993144,23602,471,-5.133468,-1.154005,4.273650,-1.943103,7.757822,6.837006,-3.190365,-8.911827,-2.563355,-0.949972,-0.301386,-0.833526,28.139999,31.439999,15.059999,-42.574,49.228,-15.111,,walk
2025-10-23T12:08:38.041838,23650,472,-2.997540,-8.238748,1.199495,0.663964,0.854795,1.465860,-3.661505,-9.093542,-0.266365,1.195387,0.806724,0.697914,28.139999,31.439999,15.059999,-16.107,19.801,-81.716,,walk
2025-10-23T12:08:38.092393,23701,473,-2.997540,-8.238748,1.199495,0.663964,0.854795,1.465860,-3.661505,-9.093542,-0.266365,1.195387,0.806724,0.697914,28.139999,31.439999,15.059999,-16.107,19.801,-81.716,,walk
2025-10-23T12:08:38.143320,23752,474,-2.997540,-8.238748,1.199495,0.663964,0.854795,1.465860,-3.661505,-9.093542,-0.266365,1.195387,0.806724,0.697914,28.139999,31.439999,15.059999,-16.107,19.801,-81.716,,walk
2025-10-23T12:08:38.192180,23801,475,-2.997540,-8.238748,1.199495,0.663964,0.854795,1.465860,-3.661505,-9.093542,-0.266365,1.195387,0.806724,0.697914,26.039999,34.079998,1.920000,4.618,19.801,-81.716,,walk
2025-10-23T12:08:38.243144,23852,476,-1.932121,-12.974479,0.519542,2.628788,-4.489384,-1.316565,-4.560909,-8.485095,1.836107,-0.001298,1.852525,0.134085,26.039999,34.079998,1.920000,1.250,8.463,-87.707,,walk
2025-10-23T12:08:38.292903,23902,477,-1.932121,-12.974479,0.519542,2.628788,-4.489384,-1.316565,-4.560909,-8.485095,1.836107,-0.001298,1.852525,0.134085,26.039999,34.079998,1.920000,1.250,8.463,-87.707,,walk
2025-10-23T12:08:38.342201,23951,478,-1.932121,-12.974479,0.519542,2.628788,-4.489384,-1.316565,-4.560909,-8.485095,1.836107,-0.001298,1.852525,0.134085,26.039999,34.079998,1.920000,1.250,8.463,-87.707,,walk
2025-10-23T12:08:38.392169,24001,479,-6.340146,-9.620202,4.350265,-2.714667,-0.741544,6.398565,-3.625479,-8.878658,-2.048300,-0.240146,6.367430,0.133474,17.699999,34.559998,14.280000,-37.190,30.985,-65.667,,walk
2025-10-23T12:08:38.442874,24051,480,-6.340146,-9.620202,4.350265,-2.714667,-0.741544,6.398565,-3.625479,-8.878658,-2.048300,-0.240146,6.367430,0.133474,17.699999,34.559998,14.280000,-37.190,30.985,-65.667,,walk
2025-10-23T12:08:38.493637,24102,481,-6.340146,-9.620202,4.350265,-2.714667,-0.741544,6.398565,-3.625479,-8.878658,-2.048300,-0.240146,6.367430,0.133474,17.699999,34.559998,14.280000,-37.190,30.985,-65.667,,walk
2025-10-23T12:08:38.542788,24151,482,-6.340146,-9.620202,4.350265,-2.714667,-0.741544,6.398565,-3.625479,-8.878658,-2.048300,-0.240146,6.367430,0.133474,17.699999,34.559998,14.280000,-37.190,30.985,-65.667,,walk
2025-10-23T12:08:38.592965,24202,483,-4.733337,-2.415750,3.622427,-3.011709,6.101576,8.167883,-1.721628,-8.517325,-4.545456,-1.158277,-2.159027,-0.800539,12.420000,36.000000,25.320000,-51.819,47.390,-33.699,,walk
2025-10-23T12:08:38.642276,24251,484,-4.733337,-2.415750,3.622427,-3.011709,6.101576,8.167883,-1.721628,-8.517325,-4.545456,-1.158277,-2.159027,-0.800539,12.420000,36.000000,25.320000,-51.819,47.390,-33.699,,walk
2025-10-23T12:08:38.691619,24300,485,-4.733337,-2.415750,3.622427,-3.011709,6.101576,8.167883,-1.721628,-8.517325,-4.545456,-1.158277,-2.159027,-0.800539,12.420000,36.000000,25.320000,-51.819,47.390,-33.699,,walk
2025-10-23T12:08:38.743364,24352,486,-4.733337,-2.415750,3.622427,-3.011709,6.101576,8.167883,-1.721628,-8.517325,-4.545456,-1.158277,-2.159027,-0.800539,12.420000,36.000000,25.320000,-51.819,47.390,-33.699,,walk
2025-10-23T12:08:38.791952,24401,487,-5.011364,-6.471827,4.450821,-2.321007,2.060867,8.466425,-2.690357,-8.532694,-4.015604,1.365818,-1.765019,-0.160963,17.160000,35.099998,23.039999,-46.485,32.539,-55.483,,walk
2025-10-23T12:08:38.842659,24451,488,-5.011364,-6.471827,4.450821,-2.321007,2.060867,8.466425,-2.690357,-8.532694,-4.015604,1.365818,-1.765019,-0.160963,17.160000,35.099998,23.039999,-46.485,32.539,-55.483,,walk
2025-10-23T12:08:38.891735,24500,489,-5.011364,-6.471827,4.450821,-2.321007,2.060867,8.466425,-2.690357,-8.532694,-4.015604,1.365818,-1.765019,-0.160963,17.160000,35.099998,23.039999,-46.485,32.539,-55.483,,walk
2025-10-23T12:08:38.941893,24550,490,-5.301062,-11.763012,3.112462,-1.737791,-2.773911,4.746223,-3.563270,-8.989101,-1.633761,1.820302,1.275868,0.725402,17.160000,35.099998,23.039999,-42.406,23.541,-75.179,,walk
2025-10-23T12:08:38.992280,24601,491,-5.301062,-11.763012,3.112462,-1.737791,-2.773911,4.746223,-3.563270,-8.989101,-1.633761,1.820302,1.275868,0.725402,23.760000,45.180000,13.200000,-27.496,23.541,-75.179,,walk
2025-10-23T12:08:39.042814,24651,492,-5.301062,-11.763012,3.112462,-1.737791,-2.773911,4.746223,-3.563270,-8.989101,-1.633761,1.820302,1.275868,0.725402,23.760000,45.180000,13.200000,-27.496,23.541,-75.179,,walk
2025-10-23T12:08:39.092930,24702,493,-5.301062,-11.763012,3.112462,-1.737791,-2.773911,4.746223,-3.563270,-8.989101,-1.633761,1.820302,1.275868,0.725402,23.760000,45.180000,13.200000,-27.496,23.541,-75.179,,walk
2025-10-23T12:08:39.142877,24751,494,-2.334347,-9.263466,-0.141258,1.837089,-0.422322,-0.917874,-4.171435,-8.841144,0.776616,1.601612,-0.793743,0.753502,23.760000,45.180000,13.200000,-13.499,14.142,-90.874,,walk
2025-10-23T12:08:39.191557,24800,495,-2.334347,-9.263466,-0.141258,1.837089,-0.422322,-0.917874,-4.171435,-8.841144,0.776616,1.601612,-0.793743,0.753502,29.400000,48.480000,1.080000,13.437,14.142,-90.874,,walk
2025-10-23T12:08:39.242708,24851,496,-2.334347,-9.263466,-0.141258,1.837089,-0.422322,-0.917874,-4.171435,-8.841144,0.776616,1.601612,-0.793743,0.753502,29.400000,48.480000,1.080000,13.437,14.142,-90.874,,walk
2025-10-23T12:08:39.292356,24901,497,-3.028665,-11.116578,-7.534852,1.577608,-2.518857,-8.550535,-4.606273,-8.597721,1.015683,-2.464918,2.726673,-1.109637,29.400000,48.480000,1.080000,47.612,12.709,-124.130,,walk
2025-10-23T12:08:39.342198,24951,498,-3.028665,-11.116578,-7.534852,1.577608,-2.518857,-8.550535,-4.606273,-8.597721,1.015683,-2.464918,2.726673,-1.109637,29.400000,48.480000,1.080000,47.612,12.709,-124.130,,walk
2025-10-23T12:08:39.393436,25002,499,-3.028665,-11.116578,-7.534852,1.577608,-2.518857,-8.550535,-4.606273,-8.597721,1.015683,-2.464918,2.726673,-1.109637,30.660000,51.719997,14.460000,34.715,12.709,-124.130,,walk
2025-10-23T12:08:39.442874,25051,500,-3.028665,-11.116578,-7.534852,1.577608,-2.518857,-8.550535,-4.606273,-8.597721,1.015683,-2.464918,2.726673,-1.109637,30.660000,51.719997,14.460000,34.715,12.709,-124.130,,walk
2025-10-23T12:08:39.493410,25102,501,-1.893813,-6.763919,1.644817,0.831899,1.968869,5.177381,-2.725713,-8.732788,-3.532564,-1.482035,0.411494,-1.784643,30.660000,51.719997,14.460000,-28.279,15.219,-76.332,,walk
2025-10-23T12:08:39.542994,25152,502,-1.893813,-6.763919,1.644817,0.831899,1.968869,5.177381,-2.725713,-8.732788,-3.532564,-1.482035,0.411494,-1.784643,30.660000,51.719997,14.460000,-28.279,15.219,-76.332,,walk
2025-10-23T12:08:39.593154,25202,503,-1.893813,-6.763919,1.644817,0.831899,1.968869,5.177381,-2.725713,-8.732788,-3.532564,-1.482035,0.411494,-1.784643,17.340000,48.959999,37.680000,-57.920,15.219,-76.332,,walk
2025-10-23T12:08:39.642627,25251,504,-1.893813,-6.763919,1.644817,0.831899,1.968869,5.177381,-2.725713,-8.732788,-3.532564,-1.482035,0.411494,-1.784643,17.340000,48.959999,37.680000,-57.920,15.219,-76.332,,walk
2025-10-23T12:08:39.691774,25300,505,-6.021717,-6.411972,-7.477391,-3.548766,1.924554,-2.943451,-2.472950,-8.336526,-4.533940,0.106214,-1.488908,0.597732,17.340000,48.959999,37.680000,32.714,31.439,-139.386,,walk
2025-10-23T12:08:39.741730,25350,506,-6.021717,-6.411972,-7.477391,-3.548766,1.924554,-2.943451,-2.472950,-8.336526,-4.533940,0.106214,-1.488908,0.597732,17.340000,48.959999,37.680000,32.714,31.439,-139.386,,walk
2025-10-23T12:08:39.792142,25401,507,-6.021717,-6.411972,-7.477391,-3.548766,1.924554,-2.943451,-2.472950,-8.336526,-4.533940,0.106214,-1.488908,0.597732,28.680000,48.000000,37.919998,29.579,31.439,-139.386,,walk
2025-10-23T12:08:39.842408,25451,508,-5.212476,-4.486734,-0.102951,-1.367367,4.308028,1.906359,-3.845109,-8.794762,-2.009309,-0.243812,3.038826,-1.453554,28.680000,48.000000,37.919998,-2.300,49.272,-91.314,,walk
2025-10-23T12:08:39.892897,25501,509,-5.212476,-4.486734,-0.102951,-1.367367,4.308028,1.906359,-3.845109,-8.794762,-2.009309,-0.243812,3.038826,-1.453554,28.680000,48.000000,37.919998,-2.300,49.272,-91.314,,walk
2025-10-23T12:08:39.942980,25552,510,-5.212476,-4.486734,-0.102951,-1.367367,4.308028,1.906359,-3.845109,-8.794762,-2.009309,-0.243812,3.038826,-1.453554,28.680000,48.000000,37.919998,-2.300,49.272,-91.314,,walk
2025-10-23T12:08:39.992156,25601,511,-5.212476,-4.486734,-0.102951,-1.367367,4.308028,1.906359,-3.845109,-8.794762,-2.009309,-0.243812,3.038826,-1.453554,37.020000,57.419998,23.939999,18.006,49.272,-91.314,,walk
2025-10-23T12:08:40.043297,25652,512,-3.143587,-6.088754,0.550666,0.758210,2.905653,0.766572,-3.901797,-8.994408,-0.215905,1.729894,0.399888,0.284358,37.020000,57.419998,23.939999,-12.238,27.212,-84.832,,walk
2025-10-23T12:08:40.093004,25702,513,-3.143587,-6.088754,0.550666,0.758210,2.905653,0.766572,-3.901797,-8.994408,-0.215905,1.729894,0.399888,0.284358,37.020000,57.419998,23.939999,-12.238,27.212,-84.832,,walk
2025-10-23T12:08:40.142821,25751,514,-3.143587,-6.088754,0.550666,0.758210,2.905653,0.766572,-3.901797,-8.994408,-0.215905,1.729894,0.399888,0.284358,37.020000,57.419998,23.939999,-12.238,27.212,-84.832,,walk
2025-10-23T12:08:40.192366,25801,515,-0.653617,-14.882957,-6.809409,4.160089,-6.626293,-9.006187,-4.813707,-8.256663,2.196778,1.456837,0.931340,0.176235,40.559998,63.000000,8.340000,26.199,2.287,-114.586,,walk
2025-10-23T12:08:40.242052,25851,516,-0.653617,-14.882957,-6.809409,4.160089,-6.626293,-9.006187,-4.813707,-8.256663,2.196778,1.456837,0.931340,0.176235,40.559998,63.000000,8.340000,26.199,2.287,-114.586,,walk
2025-10-23T12:08:40.293014,25902,517,-0.653617,-14.882957,-6.809409,4.160089,-6.626293,-9.006187,-4.813707,-8.256663,2.196778,1.456837,0.931340,0.176235,40.559998,63.000000,8.340000,26.199,2.287,-114.586,,walk
2025-10-23T12:08:40.341699,25950,518,-0.653617,-14.882957,-6.809409,4.160089,-6.626293,-9.006187,-4.813707,-8.256663,2.196778,1.456837,0.931340,0.176235,40.559998,63.000000,8.340000,26.199,2.287,-114.586,,walk
2025-10-23T12:08:40.393404,26002,519,-8.308179,-11.367969,9.395146,-4.379166,-2.598077,11.350167,-3.929013,-8.769892,-1.955021,-1.395293,4.740085,0.442572,30.840000,59.939999,26.519999,-48.019,29.395,-50.428,,walk
2025-10-23T12:08:40.442082,26051,520,-8.308179,-11.367969,9.395146,-4.379166,-2.598077,11.350167,-3.929013,-8.769892,-1.955021,-1.395293,4.740085,0.442572,30.840000,59.939999,26.519999,-48.019,29.395,-50.428,,walk
2025-10-23T12:08:40.492532,26101,521,-8.308179,-11.367969,9.395146,-4.379166,-2.598077,11.350167,-3.929013,-8.769892,-1.955021,-1.395293,4.740085,0.442572,30.840000,59.939999,26.519999,-48.019,29.395,-50.428,,walk
2025-10-23T12:08:40.542588,26151,522,-8.308179,-11.367969,9.395146,-4.379166,-2.598077,11.350167,-3.929013,-8.769892,-1.955021,-1.395293,4.740085,0.442572,30.840000,59.939999,26.519999,-48.019,29.395,-50.428,,walk
2025-10-23T12:08:40.593106,26202,523,-5.664980,-1.881842,3.485958,-3.757125,6.531831,8.148557,-1.907856,-8.413673,-4.662599,-1.449660,-2.093053,-0.940427,11.460000,44.820000,44.099998,-47.730,55.035,-28.362,,walk
2025-10-23T12:08:40.643583,26252,524,-5.664980,-1.881842,3.485958,-3.757125,6.531831,8.148557,-1.907856,-8.413673,-4.662599,-1.449660,-2.093053,-0.940427,11.460000,44.820000,44.099998,-47.730,55.035,-28.362,,walk
2025-10-23T12:08:40.692679,26301,525,-5.664980,-1.881842,3.485958,-3.757125,6.531831,8.148557,-1.907856,-8.413673,-4.662599,-1.449660,-2.093053,-0.940427,11.460000,44.820000,44.099998,-47.730,55.035,-28.362,,walk
2025-10-23T12:08:40.742763,26351,526,-3.859453,-9.852439,-4.654328,-0.740329,-1.464105,-0.644732,-3.119124,-8.388334,-4.009596,0.883235,-1.393613,0.030849,11.460000,44.820000,44.099998,-30.411,19.504,-115.286,,walk
2025-10-23T12:08:40.792506,26401,527,-3.859453,-9.852439,-4.654328,-0.740329,-1.464105,-0.644732,-3.119124,-8.388334,-4.009596,0.883235,-1.393613,0.030849,22.859999,43.559998,37.320000,-10.496,19.504,-115.286,,walk
2025-10-23T12:08:40.842162,26451,528,-3.859453,-9.852439,-4.654328,-0.740329,-1.464105,-0.644732,-3.119124,-8.388334,-4.009596,0.883235,-1.393613,0.030849,22.859999,43.559998,37.320000,-10.496,19.504,-115.286,,walk
2025-10-23T12:08:40.891824,26500,529,-3.859453,-9.852439,-4.654328,-0.740329,-1.464105,-0.644732,-3.119124,-8.388334,-4.009596,0.883235,-1.393613,0.030849,22.859999,43.559998,37.320000,-10.496,19.504,-115.286,,walk
2025-10-23T12:08:40.942345,26551,530,-4.254497,-11.123760,3.076549,-0.232120,-2.291906,4.486845,-4.022377,-8.831854,-1.410295,1.289460,0.260610,0.450513,22.859999,43.559998,37.320000,-47.687,20.235,-74.540,,walk
2025-10-23T12:08:40.992105,26601,531,-4.254497,-11.123760,3.076549,-0.232120,-2.291906,4.486845,-4.022377,-8.831854,-1.410295,1.289460,0.260610,0.450513,27.539999,52.020000,18.000000,-33.176,20.235,-74.540,,walk
2025-10-23T12:08:41.042404,26651,532,-4.254497,-11.123760,3.076549,-0.232120,-2.291906,4.486845,-4.022377,-8.831854,-1.410295,1.289460,0.260610,0.450513,27.539999,52.020000,18.000000,-33.176,20.235,-74.540,,walk
2025-10-23T12:08:41.091683,26700,533,-2.758120,-8.499715,-1.364695,1.654278,0.185206,-2.492965,-4.412398,-8.684921,1.128270,1.437900,-0.497473,0.658207,27.539999,52.020000,18.000000,-0.690,17.765,-99.121,,walk
2025-10-23T12:08:41.143257,26752,534,-2.758120,-8.499715,-1.364695,1.654278,0.185206,-2.492965,-4.412398,-8.684921,1.128270,1.437900,-0.497473,0.658207,27.539999,52.020000,18.000000,-0.690,17.765,-99.121,,walk
2025-10-23T12:08:41.191891,26800,535,-2.758120,-8.499715,-1.364695,1.654278,0.185206,-2.492965,-4.412398,-8.684921,1.128270,1.437900,-0.497473,0.658207,29.820000,54.299999,-0.240000,32.171,17.765,-99.121,,walk
2025-10-23T12:08:41.242149,26851,536,-2.758120,-8.499715,-1.364695,1.654278,0.185206,-2.492965,-4.412398,-8.684921,1.128270,1.437900,-0.497473,0.658207,29.820000,54.299999,-0.240000,32.171,17.765,-99.121,,walk
2025-10-23T12:08:41.292110,26901,537,-4.374207,-15.158290,-2.913743,0.268474,-6.533476,-3.391348,-4.642681,-8.624814,0.477604,-3.617620,1.683316,-1.274570,29.820000,54.299999,-0.240000,32.819,15.822,-100.881,,walk
2025-10-23T12:08:41.342601,26951,538,-4.374207,-15.158290,-2.913743,0.268474,-6.533476,-3.391348,-4.642681,-8.624814,0.477604,-3.617620,1.683316,-1.274570,29.820000,54.299999,-0.240000,32.819,15.822,-100.881,,walk
2025-10-23T12:08:41.392178,27001,539,-4.374207,-15.158290,-2.913743,0.268474,-6.533476,-3.391348,-4.642681,-8.624814,0.477604,-3.617620,1.683316,-1.274570,22.020000,50.700001,10.500000,12.985,15.822,-100.881,,walk
2025-10-23T12:08:41.441637,27050,540,-0.107739,-7.467814,1.814805,2.694494,1.159391,5.541586,-2.802233,-8.627206,-3.726781,-1.402623,-0.191430,-1.507310,22.020000,50.700001,10.500000,-44.622,0.803,-76.341,,walk
2025-10-23T12:08:41.492668,27101,541,-0.107739,-7.467814,1.814805,2.694494,1.159391,5.541586,-2.802233,-8.627206,-3.726781,-1.402623,-0.191430,-1.507310,22.020000,50.700001,10.500000,-44.622,0.803,-76.341,,walk
2025-10-23T12:08:41.542101,27151,542,-0.107739,-7.467814,1.814805,2.694494,1.159391,5.541586,-2.802233,-8.627206,-3.726781,-1.402623,-0.191430,-1.507310,22.020000,50.700001,10.500000,-44.622,0.803,-76.341,,walk
2025-10-23T12:08:41.592015,27201,543,-0.107739,-7.467814,1.814805,2.694494,1.159391,5.541586,-2.802233,-8.627206,-3.726781,-1.402623,-0.191430,-1.507310,8.700000,46.860001,21.059999,-74.021,0.803,-76.341,,walk
2025-10-23T12:08:41.642835,27251,544,-5.437531,-8.485350,-11.899482,-2.854715,-0.157863,-7.410401,-2.582816,-8.327487,-4.489080,0.577191,-1.350852,0.610560,8.700000,46.860001,21.059999,61.426,20.408,-144.508,,walk
2025-10-23T12:08:41.692834,27301,545,-5.437531,-8.485350,-11.899482,-2.854715,-0.157863,-7.410401,-2.582816,-8.327487,-4.489080,0.577191,-1.350852,0.610560,8.700000,46.860001,21.059999,61.426,20.408,-144.508,,walk
2025-10-23T12:08:41.742310,27351,546,-5.437531,-8.485350,-11.899482,-2.854715,-0.157863,-7.410401,-2.582816,-8.327487,-4.489080,0.577191,-1.350852,0.610560,8.700000,46.860001,21.059999,61.426,20.408,-144.508,,walk
2025-10-23T12:08:41.792700,27401,547,-5.437531,-8.485350,-11.899482,-2.854715,-0.157863,-7.410401,-2.582816,-8.327487,-4.489080,0.577191,-1.350852,0.610560,12.719999,47.520000,14.820000,62.764,20.408,-144.508,,walk
2025-10-23T12:08:41.842165,27451,548,-6.019322,-3.624821,0.986411,-2.424578,5.256878,3.075176,-3.594745,-8.881699,-2.088764,0.134925,1.722411,-1.539075,12.719999,47.520000,14.820000,-26.525,58.032,-74.777,,walk
2025-10-23T12:08:41.891666,27500,549,-6.019322,-3.624821,0.986411,-2.424578,5.256878,3.075176,-3.594745,-8.881699,-2.088764,0.134925,1.722411,-1.539075,12.719999,47.520000,14.820000,-26.525,58.032,-74.777,,walk
2025-10-23T12:08:41.942059,27551,550,-6.019322,-3.624821,0.986411,-2.424578,5.256878,3.075176,-3.594745,-8.881699,-2.088764,0.134925,1.722411,-1.539075,12.719999,47.520000,14.820000,-26.525,58.032,-74.777,,walk
2025-10-23T12:08:41.992045,27601,551,-3.052607,-6.653786,0.416591,0.783123,2.371106,0.509791,-3.835730,-9.024892,-0.093200,1.754329,0.819552,0.506713,17.340000,51.480000,2.100000,7.133,24.602,-86.417,,walk
2025-10-23T12:08:42.042624,27651,552,-3.052607,-6.653786,0.416591,0.783123,2.371106,0.509791,-3.835730,-9.024892,-0.093200,1.754329,0.819552,0.506713,17.340000,51.480000,2.100000,7.133,24.602,-86.417,,walk
2025-10-23T12:08:42.091745,27700,553,-3.052607,-6.653786,0.416591,0.783123,2.371106,0.509791,-3.835730,-9.024892,-0.093200,1.754329,0.819552,0.506713,17.340000,51.480000,2.100000,7.133,24.602,-86.417,,walk
2025-10-23T12:08:42.141665,27750,554,-3.052607,-6.653786,0.416591,0.783123,2.371106,0.509791,-3.835730,-9.024892,-0.093200,1.754329,0.819552,0.506713,17.340000,51.480000,2.100000,7.133,24.602,-86.417,,walk
2025-10-23T12:08:42.192611,27801,555,0.117316,-15.258846,-7.024887,4.896896,-6.951015,-9.099934,-4.779580,-8.307831,2.075047,1.318171,1.473178,0.064446,25.139999,49.379997,-10.380000,49.880,-0.400,-114.720,,walk
2025-10-23T12:08:42.241751,27850,556,0.117316,-15.258846,-7.024887,4.896896,-6.951015,-9.099934,-4.779580,-8.307831,2.075047,1.318171,1.473178,0.064446,25.139999,49.379997,-10.380000,49.880,-0.400,-114.720,,walk
2025-10-23T12:08:42.293319,27902,557,0.117316,-15.258846,-7.024887,4.896896,-6.951015,-9.099934,-4.779580,-8.307831,2.075047,1.318171,1.473178,0.064446,25.139999,49.379997,-10.380000,49.880,-0.400,-114.720,,walk
2025-10-23T12:08:42.341722,27950,558,0.117316,-15.258846,-7.024887,4.896896,-6.951015,-9.099934,-4.779580,-8.307831,2.075047,1.318171,1.473178,0.064446,25.139999,49.379997,-10.380000,49.880,-0.400,-114.720,,walk
2025-10-23T12:08:42.392854,28001,559,-8.940248,-12.718299,10.111013,-5.100080,-3.865837,11.859446,-3.840169,-8.852462,-1.748432,-2.154598,2.529364,0.306960,25.980000,49.439999,10.080000,-45.263,28.822,-51.515,,walk
2025-10-23T12:08:42.442284,28051,560,-8.940248,-12.718299,10.111013,-5.100080,-3.865837,11.859446,-3.840169,-8.852462,-1.748432,-2.154598,2.529364,0.306960,25.980000,49.439999,10.080000,-45.263,28.822,-51.515,,walk
2025-10-23T12:08:42.492119,28101,561,-8.940248,-12.718299,10.111013,-5.100080,-3.865837,11.859446,-3.840169,-8.852462,-1.748432,-2.154598,2.529364,0.306960,25.980000,49.439999,10.080000,-45.263,28.822,-51.515,,walk
2025-10-23T12:08:42.541486,28150,562,-4.331111,-3.509900,2.748544,-2.507509,5.004457,7.259644,-1.823602,-8.514357,-4.511100,-1.231581,-1.915902,-0.994183,25.980000,49.439999,10.080000,-40.509,44.173,-51.936,,walk
2025-10-23T12:08:42.592381,28201,563,-4.331111,-3.509900,2.748544,-2.507509,5.004457,7.259644,-1.823602,-8.514357,-4.511100,-1.231581,-1.915902,-0.994183,18.000000,46.980000,26.340000,-47.370,44.173,-51.936,,walk
2025-10-23T12:08:42.642160,28251,564,-4.331111,-3.509900,2.748544,-2.507509,5.004457,7.259644,-1.823602,-8.514357,-4.511100,-1.231581,-1.915902,-0.994183,18.000000,46.980000,26.340000,-47.370,44.173,-51.936,,walk
