timestamp_iso,session_ms,sample_idx,acc_x,acc_y,acc_z,useracc_x,useracc_y,useracc_z,gravity_x,gravity_y,gravity_z,gyro_x,gyro_y,gyro_z,mag_x,mag_y,mag_z,yaw_deg,pitch_deg,roll_deg,pressure_hpa,label
2025-10-18T17:49:36.781549,50,0,1.971686,4.927121,9.833903,-0.399292,-1.226247,0.752614,2.370978,6.153368,9.081289,0.168594,-0.252891,0.117588,-24.337502,-12.356251,-38.362503,-155.613,-10.163,26.612,,walk
2025-10-18T17:49:36.831580,100,1,1.687837,4.793123,10.803295,-0.399292,-1.226247,0.752614,2.087129,6.019370,10.050681,0.168594,-0.252891,0.117588,-24.337502,-12.356251,-38.362503,-163.578,-8.127,23.926,,walk
2025-10-18T17:49:36.881641,151,2,0.952942,4.287938,10.677672,-0.269645,-0.382771,-0.794654,1.222587,4.670709,11.472326,0.168594,-0.252891,0.117588,-24.337502,-12.356251,-38.362503,-170.499,-4.734,21.879,,walk
2025-10-18T17:49:36.935402,204,3,1.231705,3.375674,10.827224,-0.269645,-0.382771,-0.794654,1.501351,3.758445,11.621878,-0.092314,0.338257,-0.131256,-24.656252,-12.075001,-38.231251,-178.377,-6.198,17.316,,walk
2025-10-18T17:49:36.983367,252,4,1.770390,2.190629,9.782158,-0.269645,-0.382771,-0.794654,2.040035,2.573400,10.576812,-0.092314,0.338257,-0.131256,-24.656252,-12.075001,-38.231251,171.552,-10.016,12.623,,walk
2025-10-18T17:49:37.033785,303,5,2.139184,2.803491,8.489435,-0.269645,-0.382771,-0.794654,2.408829,3.186261,9.284089,-0.092314,0.338257,-0.131256,-24.656252,-12.075001,-38.231251,-172.474,-13.456,18.275,,walk
2025-10-18T17:49:37.084133,353,6,2.293520,3.073880,7.559226,0.719335,1.376116,0.673687,1.574185,1.697764,6.885539,-0.092314,0.338257,-0.131256,-24.656252,-12.075001,-38.231251,-158.811,-15.698,22.129,,walk
2025-10-18T17:49:37.132726,402,7,1.794318,2.942275,8.076375,0.719335,1.376116,0.673687,1.074982,1.566159,7.402688,0.058794,-0.099568,-0.275492,-25.031252,-12.093751,-38.062500,-169.362,-11.791,20.017,,walk
2025-10-18T17:49:37.183185,452,8,1.292722,2.749652,8.811569,0.719335,1.376116,0.673687,0.573387,1.373537,8.137882,0.058794,-0.099568,-0.275492,-25.031252,-12.093751,-38.062500,-177.892,-7.972,17.331,,walk
2025-10-18T17:49:37.232343,501,9,0.734896,3.358925,8.378169,0.719335,1.376116,0.673687,0.015560,1.982809,7.704482,0.058794,-0.099568,-0.275492,-25.031252,-12.093751,-38.062500,-170.526,-4.655,21.847,,walk
2025-10-18T17:49:37.283522,552,10,1.097707,3.795914,8.085946,0.340765,-0.500526,0.840590,0.756942,4.296440,7.245357,0.058794,-0.099568,-0.275492,-25.031252,-12.093751,-38.062500,-162.412,-7.006,25.148,,walk
2025-10-18T17:49:37.332170,601,11,0.800698,4.345366,8.362616,0.340765,-0.500526,0.840590,0.459933,4.845892,7.522026,-0.238307,0.088267,-0.488067,-24.750002,-12.112500,-38.287502,-159.971,-4.856,27.457,,walk
2025-10-18T17:49:37.382004,651,12,0.628415,4.688736,8.829515,0.340765,-0.500526,0.840590,0.287650,5.189262,7.988926,-0.238307,0.088267,-0.488067,-24.750002,-12.112500,-38.287502,-160.373,-3.597,27.970,,walk
2025-10-18T17:49:37.431820,701,13,0.149551,4.357330,9.902099,0.340765,-0.500526,0.840590,-0.191214,4.857856,9.061509,-0.238307,0.088267,-0.488067,-24.750002,-12.112500,-38.287502,-169.541,-0.792,23.751,,walk
2025-10-18T17:49:37.481771,751,14,-0.175872,3.471387,10.546066,0.786620,-0.284663,-0.994764,-0.962492,3.756050,11.540831,-0.238307,0.088267,-0.488067,-24.750002,-12.112500,-38.287502,-179.228,0.908,18.220,,walk
2025-10-18T17:49:37.532609,801,15,-1.651945,4.532006,10.050453,0.786620,-0.284663,-0.994764,-2.438564,4.816669,11.045218,-0.019165,0.380176,-0.204252,-23.962502,-12.075001,-38.831253,-173.571,8.522,24.272,,walk
2025-10-18T17:49:37.582212,851,16,-1.022334,4.199105,9.819247,0.786620,-0.284663,-0.994764,-1.808953,4.483768,10.814012,-0.019165,0.380176,-0.204252,-23.962502,-12.075001,-38.831253,-173.379,5.468,23.153,,walk
2025-10-18T17:49:37.632259,901,17,-0.442971,2.433501,10.730314,0.786620,-0.284663,-0.994764,-1.229591,2.718163,11.725079,-0.019165,0.380176,-0.204252,-23.962502,-12.075001,-38.831253,172.390,2.305,12.778,,walk
2025-10-18T17:49:37.681968,951,18,-1.000798,2.251646,8.606684,0.446069,0.913793,-0.353172,-1.446867,1.337853,8.959856,-0.019165,0.380176,-0.204252,-23.962502,-12.075001,-38.831253,174.737,6.419,14.661,,walk
2025-10-18T17:49:37.731884,1001,19,-0.677468,3.431906,7.913663,0.446069,0.913793,-0.353172,-1.123537,2.518113,8.266835,0.091933,0.286258,0.345892,-22.668751,-12.131250,-39.768753,-171.292,4.491,23.445,,walk
2025-10-18T17:49:37.782118,1051,20,-0.031107,3.177070,8.825927,0.446069,0.913793,-0.353172,-0.477176,2.263278,9.179099,0.091933,0.286258,0.345892,-22.668751,-12.131250,-39.768753,-174.913,0.190,19.797,,walk
2025-10-18T17:49:37.831848,1101,21,0.040678,2.737688,8.175976,0.446069,0.913793,-0.353172,-0.405391,1.823895,8.529148,0.091933,0.286258,0.345892,-22.668751,-12.131250,-39.768753,-177.052,-0.270,18.513,,walk
2025-10-18T17:49:37.881659,1151,22,-0.128016,3.167499,8.149654,-0.458268,0.278786,0.898433,0.330252,2.888713,7.251222,0.091933,0.286258,0.345892,-22.668751,-12.131250,-39.768753,-172.701,0.839,21.239,,walk
2025-10-18T17:49:37.931733,1201,23,-0.195015,3.532404,8.152048,-0.458268,0.278786,0.898433,0.263252,3.253618,7.253615,-0.003894,-0.336730,0.160424,-21.693750,-12.225000,-40.312500,-168.439,1.257,23.428,,walk
2025-10-18T17:49:37.981787,1251,24,-0.046660,4.067499,8.743374,-0.458268,0.278786,0.898433,0.411607,3.788713,7.844941,-0.003894,-0.336730,0.160424,-21.693750,-12.225000,-40.312500,-164.975,0.277,24.948,,walk
2025-10-18T17:49:38.031793,1301,25,-0.493221,4.370491,8.589934,-0.458268,0.278786,0.898433,-0.034953,4.091704,7.691502,-0.003894,-0.336730,0.160424,-21.693750,-12.225000,-40.312500,-163.878,2.930,26.967,,walk
2025-10-18T17:49:38.081722,1351,26,-0.810270,5.126922,9.518948,-0.668930,-0.595395,-0.741413,-0.141340,5.722317,10.260361,-0.003894,-0.336730,0.160424,-21.693750,-12.225000,-40.312500,-163.009,4.286,28.307,,walk
2025-10-18T17:49:38.131727,1401,27,0.401097,4.603791,10.517353,-0.668930,-0.595395,-0.741413,1.070027,5.199186,11.258766,0.067728,-0.003054,0.155690,-21.093750,-12.468751,-40.593750,-165.348,-2.001,23.641,,walk
2025-10-18T17:49:38.181691,1451,28,0.560220,4.743771,11.854342,-0.668930,-0.595395,-0.741413,1.229150,5.339166,12.595756,0.067728,-0.003054,0.155690,-21.093750,-12.468751,-40.593750,-168.760,-2.512,21.810,,walk
2025-10-18T17:49:38.231602,1500,29,1.139582,3.525226,11.452049,-0.668930,-0.595395,-0.741413,1.808512,4.120621,12.193462,0.067728,-0.003054,0.155690,-21.093750,-12.468751,-40.593750,-178.131,-5.433,17.110,,walk
2025-10-18T17:49:38.281653,1551,30,2.481357,3.014059,9.064013,-0.291383,0.218785,-0.608893,2.772740,2.795274,9.672906,0.067728,-0.003054,0.155690,-21.093750,-12.468751,-40.593750,-167.629,-14.562,18.394,,walk
2025-10-18T17:49:38.331813,1601,31,2.292324,2.457429,7.439585,-0.291383,0.218785,-0.608893,2.583707,2.238644,8.048478,0.422477,-0.747601,-0.484096,-20.681252,-13.031251,-40.743752,-168.485,-16.308,18.279,,walk
2025-10-18T17:49:38.382178,1651,32,1.483251,4.923532,7.207481,-0.291383,0.218785,-0.608893,1.774634,4.704746,7.816374,0.422477,-0.747601,-0.484096,-20.681252,-13.031251,-40.743752,-134.398,-9.644,34.338,,walk
2025-10-18T17:49:38.432263,1701,33,1.271187,3.166303,7.518548,-0.291383,0.218785,-0.608893,1.562570,2.947518,8.127441,0.422477,-0.747601,-0.484096,-20.681252,-13.031251,-40.743752,-161.091,-8.857,22.838,,walk
2025-10-18T17:49:38.482672,1752,34,0.239282,3.466602,7.790432,-0.443319,0.264309,1.858335,0.682601,3.202293,5.932097,0.422477,-0.747601,-0.484096,-20.681252,-13.031251,-40.743752,-165.949,-1.607,23.988,,walk
2025-10-18T17:49:38.531741,1801,35,-0.156730,4.478168,8.871390,-0.443319,0.264309,1.858335,0.286589,4.213859,7.013055,-0.306416,0.629631,-0.296337,-20.568750,-13.950001,-40.668751,-164.894,0.904,26.784,,walk
2025-10-18T17:49:38.583566,1852,36,-0.323330,4.794319,8.884550,-0.443319,0.264309,1.858335,0.119988,4.530010,7.026215,-0.306416,0.629631,-0.296337,-20.568750,-13.950001,-40.668751,-162.926,1.834,28.352,,walk
2025-10-18T17:49:38.632538,1901,37,0.346062,5.380860,8.968299,-0.443319,0.264309,1.858335,0.789381,5.116551,7.109963,-0.306416,0.629631,-0.296337,-20.568750,-13.950001,-40.668751,-154.170,-1.895,30.963,,walk
2025-10-18T17:49:38.683462,1952,38,-0.409472,5.112565,8.499007,1.043551,-0.595626,-1.135602,-1.453023,5.708190,9.634609,-0.306416,0.629631,-0.296337,-20.568750,-13.950001,-40.668751,-158.951,2.364,31.029,,walk
2025-10-18T17:49:38.732418,2001,39,0.035892,6.037989,9.346664,1.043551,-0.595626,-1.135602,-1.007659,6.633614,10.482266,0.249531,-0.754931,-0.480813,-20.100000,-14.868751,-40.856251,-154.055,-0.185,32.863,,walk
2025-10-18T17:49:38.781564,2050,40,1.280758,4.946263,10.471889,1.043551,-0.595626,-1.135602,0.237207,5.541889,11.607491,0.249531,-0.754931,-0.480813,-20.100000,-14.868751,-40.856251,-162.636,-6.311,25.283,,walk
2025-10-18T17:49:38.831738,2101,41,0.719342,5.221438,10.567602,1.043551,-0.595626,-1.135602,-0.324209,5.817064,11.703204,0.249531,-0.754931,-0.480813,-20.100000,-14.868751,-40.856251,-163.287,-3.492,26.294,,walk
2025-10-18T17:49:38.881586,2150,42,1.101297,3.381657,9.681660,-0.358068,0.325547,-0.242290,1.459365,3.056109,9.923950,0.249531,-0.754931,-0.480813,-20.100000,-14.868751,-40.856251,-179.758,-6.129,19.254,,walk
2025-10-18T17:49:38.932107,2201,43,0.524327,2.874079,8.860622,-0.358068,0.325547,-0.242290,0.882396,2.548532,9.102913,-0.067040,-0.023441,0.120031,-20.381250,-15.881250,-40.406250,172.731,-3.222,17.971,,walk
2025-10-18T17:49:38.981909,2251,44,-0.318545,3.171088,7.785647,-0.358068,0.325547,-0.242290,0.039524,2.845541,8.027937,-0.067040,-0.023441,0.120031,-20.381250,-15.881250,-40.406250,-179.394,2.170,22.161,,walk
2025-10-18T17:49:39.032093,2301,45,0.238086,2.949453,8.760123,-0.358068,0.325547,-0.242290,0.596154,2.623906,9.002414,-0.067040,-0.023441,0.120031,-20.381250,-15.881250,-40.406250,174.110,-1.475,18.608,,walk
2025-10-18T17:49:39.081954,2351,46,1.323829,2.112862,8.397312,-0.668666,0.716208,0.818934,1.992495,1.396654,7.578378,-0.067040,-0.023441,0.120031,-20.381250,-15.881250,-40.406250,160.749,-8.692,14.123,,walk
2025-10-18T17:49:39.131937,2401,47,3.448656,0.866800,4.457829,-0.668666,0.716208,0.818934,4.117322,0.150592,3.638894,0.065742,-0.057954,0.215858,-20.812500,-16.575001,-39.993752,45.655,-37.213,11.004,,walk
2025-10-18T17:49:39.248150,2517,48,1.562214,3.872484,5.628517,-0.668666,0.716208,0.818934,2.230880,3.156276,4.809583,0.065742,-0.057954,0.215858,-20.812500,-16.575001,-39.993752,-135.768,-12.880,34.528,,walk
2025-10-18T17:49:39.281846,2551,49,1.975275,2.080559,2.859722,-0.656855,-0.859903,-0.154430,2.632130,2.940462,3.014153,0.065742,-0.057954,0.215858,-20.812500,-16.575001,-39.993752,-84.198,-29.185,36.037,,walk
2025-10-18T17:49:39.332163,2601,50,3.781557,2.367698,3.029613,-0.656855,-0.859903,-0.154430,4.438412,3.227601,3.184043,1.035310,-3.250624,0.349481,-22.706251,-17.625000,-37.950001,-50.357,-44.523,38.008,,walk
2025-10-18T17:49:39.381570,2650,51,6.732206,-0.185444,1.550250,-0.656855,-0.859903,-0.154430,7.389061,0.674459,1.704680,1.035310,-3.250624,0.349481,-22.706251,-17.625000,-37.950001,33.590,-76.943,-6.821,,walk
2025-10-18T17:49:39.431828,2701,52,11.243874,-2.918346,-0.209372,-0.656855,-0.859903,-0.154430,11.900728,-2.058444,-0.054942,1.035310,-3.250624,0.349481,-22.706251,-17.625000,-37.950001,44.233,-75.414,-94.104,,walk
2025-10-18T17:49:39.481815,2751,53,14.236398,-1.633999,-2.346163,-3.020389,-2.047357,-1.223893,17.256787,0.413358,-1.122270,1.035310,-3.250624,0.349481,-22.706251,-17.625000,-37.950001,4.420,-78.644,-145.144,,walk
2025-10-18T17:49:39.531822,2801,54,16.951353,-2.298306,-2.791527,-3.020389,-2.047357,-1.223893,19.971742,-0.250949,-1.567634,1.035310,-3.250624,0.349481,-25.893751,-16.893751,-32.362503,15.633,-77.959,-140.535,,walk
2025-10-18T17:49:39.581733,2851,55,16.840088,-5.313562,-3.009274,-3.020389,-2.047357,-1.223893,19.860477,-3.266205,-1.785381,2.320914,-2.265404,3.677377,-25.893751,-16.893751,-32.362503,46.118,-70.068,-119.525,,walk
2025-10-18T17:49:39.631910,2901,56,22.668406,-0.797109,-4.762914,-3.020389,-2.047357,-1.223893,25.688795,1.250248,-3.539021,2.320914,-2.265404,3.677377,-25.893751,-16.893751,-32.362503,-23.412,-77.974,-170.499,,walk
2025-10-18T17:49:39.681701,2951,57,15.348462,-3.319443,10.284950,-2.126491,-3.078467,2.097604,17.474953,-0.240976,8.187346,2.320914,-2.265404,3.677377,-25.893751,-16.893751,-32.362503,67.795,-54.849,-17.887,,walk
2025-10-18T17:49:39.731676,3001,58,5.762515,-3.629314,1.631606,-2.126491,-3.078467,2.097604,7.889006,-0.550846,-0.465998,-1.634933,1.177866,3.692266,-28.443750,-12.468751,-25.106251,83.500,-55.374,-65.793,,walk
2025-10-18T17:49:39.781725,3051,59,5.768497,-6.311967,0.021535,-2.126491,-3.078467,2.097604,7.894988,-3.233500,-2.076068,-1.634933,1.177866,3.692266,-28.443750,-12.468751,-25.106251,96.136,-42.424,-89.805,,walk
2025-10-18T17:49:39.831974,3101,60,7.030412,-4.830212,-3.494119,-2.126491,-3.078467,2.097604,9.156903,-1.751744,-5.591723,-1.634933,1.177866,3.692266,-28.443750,-12.468751,-25.106251,88.159,-49.703,-125.882,,walk
2025-10-18T17:49:39.881626,3150,61,5.926723,-6.142076,-0.199801,10.225036,3.764334,-1.855813,-4.298313,-9.906410,1.656012,-1.634933,1.177866,3.692266,-28.443750,-12.468751,-25.106251,94.656,-43.963,-91.863,,walk
2025-10-18T17:49:39.932264,3201,62,8.088339,-11.221142,0.252443,10.225036,3.764334,-1.855813,-2.136697,-14.985476,2.108255,-1.634933,1.177866,3.692266,-28.256250,-6.337500,-17.850000,111.855,-35.778,-88.711,,walk
2025-10-18T17:49:39.981789,3251,63,11.432906,-9.245867,-2.373680,10.225036,3.764334,-1.855813,1.207870,-13.010201,-0.517868,2.678184,-1.771075,1.601642,-28.256250,-6.337500,-17.850000,98.220,-50.140,-104.399,,walk
2025-10-18T17:49:40.031935,3301,64,3.491726,-10.787742,2.880061,10.225036,3.764334,-1.855813,-6.733309,-14.552075,4.735874,2.678184,-1.771075,1.601642,-28.256250,-6.337500,-17.850000,129.510,-17.366,-75.052,,walk
2025-10-18T17:49:40.081769,3351,65,7.285248,-8.447561,7.733005,1.367449,1.746664,-1.837320,5.917799,-10.194225,9.570324,2.678184,-1.771075,1.601642,-28.256250,-6.337500,-17.850000,118.219,-32.461,-47.529,,walk
2025-10-18T17:49:40.131619,3400,66,2.833401,-7.315158,0.673879,1.367449,1.746664,-1.837320,1.465952,-9.061822,2.511198,0.270147,-0.204710,0.031535,-26.231251,1.068750,-11.400001,135.681,-21.092,-84.737,,walk
2025-10-18T17:49:40.181813,3451,67,4.213761,-7.923234,4.356133,1.367449,1.746664,-1.837320,2.846312,-9.669898,6.193453,0.270147,-0.204710,0.031535,-26.231251,1.068750,-11.400001,136.095,-24.987,-61.198,,walk
2025-10-18T17:49:40.231826,3501,68,4.522435,-6.483353,0.883550,1.367449,1.746664,-1.837320,3.154986,-8.230017,2.720869,0.270147,-0.204710,0.031535,-26.231251,1.068750,-11.400001,122.252,-34.651,-82.240,,walk
2025-10-18T17:49:40.281626,3550,69,5.171189,-6.719046,2.965006,2.249674,-1.882701,-1.566896,2.921515,-4.836345,4.531903,0.270147,-0.204710,0.031535,-26.231251,1.068750,-11.400001,124.187,-35.150,-66.189,,walk
2025-10-18T17:49:40.331630,3600,70,0.576969,-2.539084,-2.624029,2.249674,-1.882701,-1.566896,-1.672704,-0.656383,-1.057133,0.270147,-0.204710,0.031535,-25.650002,8.193750,-4.443750,154.555,-8.979,-135.943,,walk
2025-10-18T17:49:40.381614,3650,71,3.903591,-5.616553,1.605285,2.249674,-1.882701,-1.566896,1.653917,-3.733852,3.172181,1.714419,0.048868,0.031840,-25.650002,8.193750,-4.443750,141.493,-33.753,-74.049,,walk
2025-10-18T17:49:40.432102,3701,72,3.903591,-5.616553,1.605285,2.249674,-1.882701,-1.566896,1.653917,-3.733852,3.172181,1.714419,0.048868,0.031840,-25.650002,8.193750,-4.443750,141.493,-33.753,-74.049,,walk
2025-10-18T17:49:40.482131,3751,73,3.903591,-5.616553,1.605285,2.249674,-1.882701,-1.566896,1.653917,-3.733852,3.172181,1.714419,0.048868,0.031840,-25.650002,8.193750,-4.443750,141.493,-33.753,-74.049,,walk
2025-10-18T17:49:59.571963,22841,74,3.903591,-5.616553,1.605285,0.062641,-3.089716,-0.757056,3.840950,-2.526837,2.362341,1.714419,0.048868,0.031840,30.093752,27.318750,2.531250,-47.319,-33.753,-74.049,,walk
2025-10-18T17:49:59.719676,22989,75,-1.765604,-3.277569,-1.019941,0.062641,-3.089716,-0.757056,-1.828245,-0.187853,-0.262885,-2.338781,0.157064,0.243346,30.093752,27.318750,2.531250,34.393,27.220,-107.286,,walk
2025-10-18T17:49:59.768940,23038,76,-1.918745,-16.799410,-8.469096,-0.004289,-2.736946,5.458176,-1.914456,-14.062464,-13.927272,-1.972731,-1.287284,0.300919,30.337502,27.243752,6.412500,16.813,5.823,-116.754,,walk
2025-10-18T17:49:59.918008,23187,77,-1.918745,-16.799410,-8.469096,-0.004289,-2.736946,5.458176,-1.914456,-14.062464,-13.927272,-1.972731,-1.287284,0.300919,30.337502,27.243752,6.412500,16.813,5.823,-116.754,,walk
2025-10-18T17:49:59.919135,23188,78,-1.918745,-16.799410,-8.469096,-0.004289,-2.736946,5.458176,-1.914456,-14.062464,-13.927272,-1.972731,-1.287284,0.300919,30.337502,27.243752,6.412500,16.813,5.823,-116.754,,walk
2025-10-18T17:49:59.968889,23238,79,-1.661516,-5.807979,1.739283,-1.818219,4.321022,0.406070,0.156703,-10.129000,1.333213,1.072419,0.102851,-0.545410,30.487501,26.943750,7.575000,-12.581,15.326,-73.329,,walk
2025-10-18T17:50:00.018820,23288,80,0.298206,-10.840384,0.645165,-1.818219,4.321022,0.406070,2.116425,-15.161405,0.239095,0.964757,0.849918,-0.057572,30.487501,26.943750,7.575000,-18.274,-1.573,-86.594,,walk
2025-10-18T17:50:00.069288,23338,81,0.532702,-10.593924,-0.483649,-1.818219,4.321022,0.406070,2.350921,-14.914945,-0.889719,0.964757,0.849918,-0.057572,30.525002,26.193750,6.337500,-12.446,-2.876,-92.614,,walk
2025-10-18T17:50:00.118797,23388,82,0.359223,-9.300004,0.726521,-1.818219,4.321022,0.406070,2.177442,-13.621026,0.320451,0.964757,0.849918,-0.057572,30.525002,26.193750,6.337500,-17.473,-2.205,-85.533,,walk
2025-10-18T17:50:00.169074,23438,83,0.591326,-8.379366,1.700998,-2.274590,-2.660906,-1.614599,2.865916,-5.718460,3.315597,0.964757,0.849918,-0.057572,30.525002,26.193750,6.337500,-24.171,-3.956,-78.525,,walk
2025-10-18T17:50:00.218783,23488,84,0.317348,-8.800801,-0.371187,-2.274590,-2.660906,-1.614599,2.591938,-6.139895,1.243412,1.599504,0.335279,-0.266177,30.525002,26.193750,6.337500,-11.794,-2.063,-92.415,,walk
2025-10-18T17:50:00.268820,23538,85,-0.532702,-9.221938,-0.294616,-2.274590,-2.660906,-1.614599,1.741887,-6.561032,1.319983,1.599504,0.335279,-0.266177,29.681252,25.706251,4.481250,-3.715,3.304,-91.830,,walk
2025-10-18T17:50:00.318985,23588,86,-0.538684,-10.583156,-1.108475,-2.274590,-2.660906,-1.614599,1.735905,-7.922250,0.506124,1.599504,0.335279,-0.266177,29.681252,25.706251,4.481250,-0.539,2.898,-95.979,,walk
2025-10-18T17:50:00.369072,23638,87,2.565405,-12.018250,0.860818,-0.790341,0.355181,-0.334671,3.355746,-12.373431,1.195489,1.599504,0.335279,-0.266177,29.681252,25.706251,4.481250,-23.768,-12.020,-85.903,,walk
2025-10-18T17:50:00.418968,23688,88,1.807478,-12.918550,0.799502,-0.790341,0.355181,-0.334671,2.597819,-13.273731,1.134172,0.477912,0.370708,-0.040621,29.681252,25.706251,4.481250,-19.366,-7.950,-86.459,,walk
2025-10-18T17:50:00.469502,23738,89,1.024726,-12.937693,-0.428614,-0.790341,0.355181,-0.334671,1.815067,-13.292873,-0.093944,0.477912,0.370708,-0.040621,28.950001,25.387501,2.812500,-8.431,-4.526,-91.897,,walk
2025-10-18T17:50:00.518986,23788,90,-0.837787,-10.123434,0.399900,-0.790341,0.355181,-0.334671,-0.047446,-10.478615,0.734571,0.477912,0.370708,-0.040621,28.950001,25.387501,2.812500,-2.793,4.727,-87.738,,walk
2025-10-18T17:50:00.569829,23839,91,-3.212963,-10.335199,1.476072,-0.471469,-0.219401,-2.938343,-2.741493,-10.115798,4.414415,0.477912,0.370708,-0.040621,28.950001,25.387501,2.812500,4.373,17.106,-81.872,,walk
2025-10-18T17:50:00.619002,23888,92,-1.140778,-12.308082,0.122034,-0.471469,-0.219401,-2.938343,-0.669309,-12.088680,3.060377,-2.571591,-0.259763,0.393615,28.950001,25.387501,2.812500,-0.750,5.295,-89.432,,walk
2025-10-18T17:50:00.669431,23938,93,1.443769,-13.296915,-0.220140,-0.471469,-0.219401,-2.938343,1.915239,-13.077514,2.718203,-2.571591,-0.259763,0.393615,28.950001,25.387501,2.812500,-10.930,-6.196,-90.948,,walk
2025-10-18T17:50:00.719046,23988,94,0.498006,-9.162118,-0.068195,-0.471469,-0.219401,-2.938343,0.969476,-8.942717,2.870147,-2.571591,-0.259763,0.393615,28.631250,24.731251,4.031250,-10.767,-3.111,-90.426,,walk
2025-10-18T17:50:00.769139,24038,95,-1.295115,-5.019245,-0.277567,0.231969,-2.145613,1.005040,-1.527085,-2.873632,-1.282607,-2.571591,-0.259763,0.393615,28.631250,24.731251,4.031250,9.096,14.447,-93.165,,walk
2025-10-18T17:50:00.819403,24088,96,-1.231705,-4.299902,0.337687,0.231969,-2.145613,1.005040,-1.463675,-2.154290,-0.667353,-1.188556,-1.122279,-0.297559,28.631250,24.731251,4.031250,4.069,15.938,-85.510,,walk
2025-10-18T17:50:00.870856,24140,97,-1.508376,-3.336193,-1.252044,0.231969,-2.145613,1.005040,-1.740345,-1.190580,-2.257084,-1.188556,-1.122279,-0.297559,28.500002,24.393751,7.818750,22.663,22.943,-110.571,,walk
2025-10-18T17:50:00.919054,24188,98,-1.888834,-8.222636,-4.185944,0.231969,-2.145613,1.005040,-2.120804,-6.077024,-5.190984,-1.188556,-1.122279,-0.297559,28.500002,24.393751,7.818750,17.564,11.569,-116.980,,walk
2025-10-18T17:50:00.968937,24238,99,-1.459323,-16.881962,-9.382557,0.098467,-2.035069,4.768892,-1.557789,-14.846893,-14.151449,-1.188556,-1.122279,-0.297559,28.500002,24.393751,7.818750,13.403,4.321,-119.064,,walk
2025-10-18T17:50:01.018858,24288,100,-1.028316,-7.355836,-6.103791,0.098467,-2.035069,4.768892,-1.126782,-5.320767,-10.872683,0.582748,-0.088649,-0.263962,28.500002,24.393751,7.818750,22.260,6.140,-129.686,,walk
2025-10-18T17:50:01.069614,24338,101,0.480060,-15.570097,-1.217349,0.098467,-2.035069,4.768892,0.381593,-13.535028,-5.986240,0.582748,-0.088649,-0.263962,28.500002,24.393751,7.818750,-13.464,-1.761,-94.471,,walk
2025-10-18T17:50:01.119041,24388,102,-0.752842,-7.136893,2.450250,0.098467,-2.035069,4.768892,-0.851309,-5.101824,-2.318641,0.582748,-0.088649,-0.263962,28.650002,23.643751,8.737500,-24.214,5.698,-71.052,,walk
2025-10-18T17:50:01.168900,24438,103,-2.231307,-7.278069,0.080160,-1.468173,1.764628,-0.271468,-0.763134,-9.042697,0.351628,0.582748,-0.088649,-0.263962,28.650002,23.643751,8.737500,-0.415,17.043,-89.369,,walk
2025-10-18T17:50:01.219194,24488,104,1.508376,-12.138191,1.440180,-1.468173,1.764628,-0.271468,2.976549,-13.902819,1.711649,1.066845,0.594125,-0.004276,28.650002,23.643751,8.737500,-28.539,-7.035,-83.234,,walk
2025-10-18T17:50:01.269007,24538,105,0.397508,-10.713564,-0.538684,-1.468173,1.764628,-0.271468,1.865681,-12.478192,-0.267216,1.066845,0.594125,-0.004276,29.025002,22.556252,7.612500,-14.706,-2.122,-92.878,,walk
2025-10-18T17:50:01.319390,24588,106,0.034696,-9.576375,0.846461,-1.468173,1.764628,-0.271468,1.502869,-11.341003,1.117929,1.066845,0.594125,-0.004276,29.025002,22.556252,7.612500,-18.448,-0.207,-84.949,,walk
2025-10-18T17:50:01.369599,24638,107,-0.062213,-8.248957,0.450150,-1.547855,-0.385989,-0.708635,1.485642,-7.862967,1.158785,1.066845,0.594125,-0.004276,29.025002,22.556252,7.612500,-16.495,0.431,-86.876,,walk
2025-10-18T17:50:01.418970,24688,108,0.417847,-8.593523,0.299402,-1.547855,-0.385989,-0.708635,1.965702,-8.207534,1.008037,1.390288,-0.048104,-0.384070,29.025002,22.556252,7.612500,-18.887,-2.782,-88.005,,walk
2025-10-18T17:50:01.468989,24738,109,-0.554238,-8.121839,0.215354,-1.547855,-0.385989,-0.708635,0.993617,-7.735849,0.923989,1.390288,-0.048104,-0.384070,29.025002,22.556252,7.612500,-11.907,3.902,-88.481,,walk
2025-10-18T17:50:01.518973,24788,110,0.161516,-10.940883,-0.952942,-1.547855,-0.385989,-0.708635,1.709370,-10.554893,-0.244307,1.390288,-0.048104,-0.384070,29.062502,21.787500,6.243750,-9.321,-0.843,-94.978,,walk
2025-10-18T17:50:01.568986,24838,111,1.854138,-12.416955,-0.001196,-0.266207,-0.380075,-0.349540,2.120345,-12.036880,0.348344,1.390288,-0.048104,-0.384070,29.062502,21.787500,6.243750,-20.614,-8.493,-90.006,,walk
2025-10-18T17:50:01.619428,24888,112,1.195813,-12.847962,-0.482453,-0.266207,-0.380075,-0.349540,1.462020,-12.467887,-0.132913,0.484936,0.207612,-0.014966,29.062502,21.787500,6.243750,-15.911,-5.314,-92.150,,walk
2025-10-18T17:50:01.670264,24939,113,1.416252,-12.525828,-0.463310,-0.266207,-0.380075,-0.349540,1.682459,-12.145753,-0.113770,0.484936,0.207612,-0.014966,29.268751,21.375000,4.143750,-13.003,-6.446,-92.118,,walk
2025-10-18T17:50:01.719405,24988,114,-0.200997,-11.185249,0.153141,-0.266207,-0.380075,-0.349540,0.065210,-10.805174,0.502681,0.484936,0.207612,-0.014966,29.268751,21.375000,4.143750,-7.590,1.029,-89.216,,walk
2025-10-18T17:50:01.769388,25038,115,-3.112464,-11.914163,1.100100,-0.313985,-0.154038,-2.821881,-2.798479,-11.760124,3.921981,0.484936,0.207612,-0.014966,29.268751,21.375000,4.143750,2.688,14.581,-84.725,,walk
2025-10-18T17:50:01.818984,25088,116,0.038285,-14.481961,-1.329811,-0.313985,-0.154038,-2.821881,0.352271,-14.327923,1.492070,-2.951461,-0.234642,0.462335,29.268751,21.375000,4.143750,-4.395,-0.151,-95.246,,walk
2025-10-18T17:50:01.869048,25138,117,1.535893,-12.294921,0.314955,-0.313985,-0.154038,-2.821881,1.849878,-12.140882,3.136836,-2.951461,-0.234642,0.462335,29.718752,20.943750,5.043750,-17.716,-7.118,-88.533,,walk
2025-10-18T17:50:09.613843,32883,118,1.535893,-12.294921,0.314955,-0.313985,-0.154038,-2.821881,1.849878,-12.140882,3.136836,-2.951461,-0.234642,0.462335,29.718752,20.943750,5.043750,-17.716,-7.118,-88.533,,walk
2025-10-18T17:50:09.648870,32918,119,1.535893,-12.294921,0.314955,-0.059447,-2.957452,4.810500,1.595341,-9.337469,-4.495545,1.151752,0.190355,-0.297864,30.787500,18.600000,3.093750,-13.709,-7.118,-88.533,,walk
2025-10-18T17:50:09.702610,32971,120,0.457328,-10.738688,0.401097,-0.059447,-2.957452,4.810500,0.516776,-7.781237,-4.409403,0.469054,-0.042683,-0.362843,30.787500,18.600000,3.093750,-9.438,-2.437,-87.861,,walk
2025-10-18T17:50:09.726369,32995,121,1.403091,-11.585150,0.142373,-1.443406,4.207771,1.349516,2.846498,-15.792921,-1.207143,0.469054,-0.042683,-0.362843,30.787500,18.600000,3.093750,-13.055,-6.905,-89.296,,walk
2025-10-18T17:50:09.776559,33045,122,0.195015,-10.178470,1.392025,-1.443406,4.207771,1.349516,1.638421,-14.386241,0.042509,0.469054,-0.042683,-0.362843,30.787500,18.600000,3.093750,-11.344,-1.088,-82.212,,walk
2025-10-18T17:50:09.825683,33095,123,-0.440578,-8.962317,1.011566,-0.972662,-3.132742,-2.935864,0.532084,-5.829576,3.947430,0.469054,-0.042683,-0.362843,30.431252,18.750000,2.325000,-5.495,2.797,-83.560,,walk
2025-10-18T17:50:09.876254,33145,124,0.128016,-9.042477,0.402293,-0.972662,-3.132742,-2.935864,1.100678,-5.909735,3.338158,1.499935,0.816703,0.089795,30.431252,18.750000,2.325000,-6.728,-0.810,-87.453,,walk
2025-10-18T17:50:14.905667,38175,125,0.483649,-9.182457,0.356830,-0.972662,-3.132742,-2.935864,1.456311,-6.049715,3.292694,1.499935,0.816703,0.089795,30.431252,18.750000,2.325000,-8.727,-3.013,-87.775,,walk
2025-10-18T17:50:14.908624,38177,126,0.483649,-9.182457,0.356830,-0.972662,-3.132742,-2.935864,1.456311,-6.049715,3.292694,1.499935,0.816703,0.089795,30.431252,18.750000,2.325000,-8.727,-3.013,-87.775,,walk
2025-10-18T17:50:14.967093,38236,127,0.835394,-13.058531,-0.926621,-0.712978,-0.088648,1.100571,1.548373,-12.969883,-2.027191,1.249335,0.117741,-0.034742,28.331251,18.918751,3.787500,-8.583,-3.651,-94.059,,walk
2025-10-18T17:50:15.008854,38278,128,1.376471,-13.027424,-0.215354,-0.783448,0.883858,-1.950750,2.159920,-13.911282,1.735395,1.249335,0.117741,-0.034742,28.143751,19.593750,2.306250,-10.067,-6.031,-90.947,,walk
2025-10-18T17:50:15.058523,38327,129,-1.460519,-9.378967,0.149551,-0.783448,0.883858,-1.950750,-0.677071,-10.262825,2.100301,-1.299578,0.213109,-0.000611,28.143751,19.593750,2.306250,3.532,8.850,-89.086,,walk
2025-10-18T17:50:15.108874,38378,130,-2.242075,-11.308480,1.248455,-0.783448,0.883858,-1.950750,-1.458626,-12.192338,3.199205,-1.299578,0.213109,-0.000611,28.143751,19.593750,2.306250,2.061,11.148,-83.700,,walk
2025-10-18T17:50:15.293553,38562,131,-1.299901,-13.469198,0.177069,-0.783448,0.883858,-1.950750,-0.516453,-14.353056,2.127818,-1.299578,0.213109,-0.000611,28.143751,19.593750,2.306250,0.305,5.512,-89.247,,walk
2025-10-18T17:50:15.309367,38578,132,-1.299901,-13.469198,0.177069,-0.783448,0.883858,-1.950750,-0.516453,-14.353056,2.127818,-1.299578,0.213109,-0.000611,28.481251,20.568750,3.075000,-1.191,5.512,-89.247,,walk
2025-10-18T17:50:15.358678,38628,133,-1.661516,-3.853342,-0.045464,0.054940,-2.167644,-2.163172,-1.716456,-1.685698,2.117708,-2.586327,-1.490925,0.088802,28.481251,20.568750,3.075000,17.623,23.324,-90.676,,walk
2025-10-18T17:50:15.408550,38677,134,-2.106880,-4.692325,-2.519642,-0.397128,-2.960732,4.125850,-1.709752,-1.731593,-6.645492,-2.586327,-1.490925,0.088802,28.612501,21.900002,5.850000,27.296,21.583,-118.235,,walk
2025-10-18T17:50:15.458716,38728,135,-2.202593,-17.303398,-9.569197,-0.397128,-2.960732,4.125850,-1.805465,-14.342666,-13.695046,1.147477,-0.268773,-0.290916,28.612501,21.900002,5.850000,15.896,6.356,-118.944,,walk
2025-10-18T17:50:15.508543,38777,136,-3.110071,-13.021441,-8.264510,-0.397128,-2.960732,4.125850,-2.712943,-10.060709,-12.390360,1.147477,-0.268773,-0.290916,28.612501,21.900002,5.850000,21.780,11.401,-122.403,,walk
2025-10-18T17:50:15.559011,38828,137,-2.025524,-10.659726,-4.689932,-0.397128,-2.960732,4.125850,-1.628396,-7.698994,-8.815782,1.147477,-0.268773,-0.290916,29.006250,22.743752,6.262500,15.210,9.867,-113.748,,walk
2025-10-18T17:50:15.609484,38878,138,1.740479,-13.744373,-1.784747,-1.049469,3.489725,3.286198,2.789948,-17.234098,-5.070945,1.147477,-0.268773,-0.290916,29.006250,22.743752,6.262500,-13.684,-7.158,-97.399,,walk
2025-10-18T17:50:15.659008,38928,139,-1.411466,-5.981758,2.468197,-1.049469,3.489725,3.286198,-0.361997,-9.471483,-0.818002,1.147477,-0.268773,-0.290916,29.006250,22.743752,6.262500,-16.192,12.305,-67.578,,walk
2025-10-18T17:50:15.708596,38977,140,-0.003589,-10.140184,1.894816,-1.049469,3.489725,3.286198,1.045880,-13.629910,-1.391382,-0.087962,-0.023212,-0.369257,29.006250,22.743752,6.262500,-19.590,0.020,-79.416,,walk
2025-10-18T17:50:15.758427,39027,141,0.913460,-11.930913,1.224527,-1.049469,3.489725,3.286198,1.962929,-15.420638,-2.061671,-0.087962,-0.023212,-0.369257,29.006250,22.743752,6.262500,-20.658,-4.355,-84.140,,walk
2025-10-18T17:50:15.808608,39077,142,0.490828,-10.153345,-0.058624,-2.091233,-2.679018,-2.715503,2.582061,-7.474327,2.656879,-0.087962,-0.023212,-0.369257,29.531252,22.912500,4.762500,-11.680,-2.768,-90.331,,walk
2025-10-18T17:50:15.859485,39128,143,-0.062213,-8.801998,0.373579,-2.091233,-2.679018,-2.715503,2.029019,-6.122980,3.089082,-0.087962,-0.023212,-0.369257,29.531252,22.912500,4.762500,-10.579,0.405,-87.570,,walk
2025-10-18T17:50:15.909853,39179,144,-0.416650,-7.729415,-0.128016,-2.091233,-2.679018,-2.715503,1.674583,-5.050397,2.587487,1.725491,0.463557,0.009239,29.531252,22.912500,4.762500,-5.352,3.085,-90.949,,walk
2025-10-18T17:50:15.958623,39227,145,-0.743271,-8.343473,-0.560220,-2.091233,-2.679018,-2.715503,1.347962,-5.664455,2.155283,1.725491,0.463557,0.009239,29.775002,23.287500,2.100000,4.031,5.079,-93.841,,walk
2025-10-18T17:50:16.009404,39278,146,-0.304188,-9.329915,-0.116052,-0.223693,0.275652,1.463263,-0.080494,-9.605567,-1.579314,1.725491,0.463557,0.009239,29.775002,23.287500,2.100000,-1.611,1.867,-90.713,,walk
2025-10-18T17:50:16.058994,39328,147,1.746461,-11.845967,-0.653540,-0.223693,0.275652,1.463263,1.970155,-12.121619,-2.116802,1.725491,0.463557,0.009239,29.775002,23.287500,2.100000,-9.964,-8.374,-93.158,,walk
2025-10-18T17:50:16.108715,39378,148,1.505983,-13.188042,-1.054637,-0.223693,0.275652,1.463263,1.729676,-13.463694,-2.517899,0.941239,0.277401,-0.107509,29.775002,23.287500,2.100000,-6.956,-6.494,-94.572,,walk
2025-10-18T17:50:16.159735,39429,149,0.764806,-12.894622,-1.447359,-0.223693,0.275652,1.463263,0.988499,-13.170274,-2.910621,0.941239,0.277401,-0.107509,29.775002,23.287500,2.100000,-2.373,-3.373,-96.404,,walk
2025-10-18T17:50:16.208671,39478,150,0.707378,-11.379068,0.476471,-1.130905,0.944424,-2.303977,1.838283,-12.323492,2.780448,0.941239,0.277401,-0.107509,29.943750,23.550001,-0.975000,-3.569,-3.554,-87.602,,walk
2025-10-18T17:50:16.258647,39528,151,-1.929512,-10.951949,0.830609,-1.130905,0.944424,-2.303977,-0.798608,-11.896373,3.134586,0.941239,0.277401,-0.107509,29.943750,23.550001,-0.975000,8.424,9.964,-85.663,,walk
2025-10-18T17:50:16.309036,39578,152,-2.524428,-13.677374,0.952942,-1.130905,0.944424,-2.303977,-1.393523,-14.621798,3.256919,-1.997165,0.311379,0.101782,29.943750,23.550001,-0.975000,9.177,10.433,-86.014,,walk
2025-10-18T17:50:16.358552,39627,153,1.599303,-12.728321,0.242871,-1.130905,0.944424,-2.303977,2.730207,-13.672745,2.546849,-1.997165,0.311379,0.101782,30.225000,24.168751,-1.350000,-5.471,-7.160,-88.907,,walk
2025-10-18T17:50:16.408556,39677,154,0.992423,-9.121440,0.278764,0.343080,-2.411636,-1.020665,0.649343,-6.709804,1.299429,-1.997165,0.311379,0.101782,30.225000,24.168751,-1.350000,-5.040,-6.207,-88.250,,walk
2025-10-18T17:50:16.458603,39727,155,-1.202992,-4.249653,0.256032,0.343080,-2.411636,-1.020665,-1.546071,-1.838017,1.276697,-1.997165,0.311379,0.101782,30.225000,24.168751,-1.350000,15.653,15.779,-86.552,,walk
2025-10-18T17:50:16.510137,39779,156,-1.440180,-3.738486,0.707378,0.343080,-2.411636,-1.020665,-1.783260,-1.326850,1.728043,-2.021675,-1.530630,-0.026037,30.225000,24.168751,-1.350000,14.642,20.732,-79.285,,walk
2025-10-18T17:50:16.559458,39828,157,-1.498804,-3.491726,-0.824627,0.343080,-2.411636,-1.020665,-1.841884,-1.080090,0.196038,-2.021675,-1.530630,-0.026037,30.225000,24.168751,-1.350000,33.487,22.673,-103.288,,walk
2025-10-18T17:50:16.608798,39878,158,-2.300699,-14.425730,-7.913663,-0.600457,-3.327215,5.296735,-1.700242,-11.098515,-13.210398,-2.021675,-1.530630,-0.026037,30.000002,25.331251,0.806250,26.894,7.960,-118.748,,walk
2025-10-18T17:50:16.658681,39928,159,-1.619642,-17.419449,-9.086744,-0.600457,-3.327215,5.296735,-1.019185,-14.092234,-14.383479,-2.021675,-1.530630,-0.026037,30.000002,25.331251,0.806250,23.756,4.713,-117.549,,walk
2025-10-18T17:50:16.709783,39979,160,-3.042773,-8.186744,-9.455538,-0.600457,-3.327215,5.296735,-2.442316,-4.859529,-14.752273,0.740805,-0.345510,-0.475239,30.000002,25.331251,0.806250,38.430,13.673,-139.114,,walk
2025-10-18T17:50:16.760360,40029,161,0.000000,-15.798612,-1.461716,-0.600457,-3.327215,5.296735,0.600457,-12.471396,-6.758450,0.740805,-0.345510,-0.475239,30.000002,25.331251,0.806250,2.921,-0.000,-95.286,,walk
2025-10-18T17:50:16.809434,40078,162,-1.716551,-6.100202,2.761616,-1.737801,4.292540,1.602907,0.021249,-10.392742,1.158710,0.740805,-0.345510,-0.475239,29.343752,26.025002,0.543750,-9.101,14.378,-65.643,,walk
2025-10-18T17:50:16.860037,40129,163,-2.535495,-6.784849,-0.033500,-1.737801,4.292540,1.602907,-0.797694,-11.077389,-1.636406,0.740805,-0.345510,-0.475239,29.343752,26.025002,0.543750,19.665,20.490,-90.283,,walk
2025-10-18T17:50:16.908962,40178,164,0.364008,-11.857932,1.490429,-1.737801,4.292540,1.602907,2.101809,-16.150472,-0.112478,0.801203,0.841137,-0.175008,29.343752,26.025002,0.543750,-9.054,-1.745,-82.836,,walk
2025-10-18T17:50:16.958977,40228,165,0.377169,-10.455139,0.580559,-1.737801,4.292540,1.602907,2.114969,-14.747679,-1.022348,0.801203,0.841137,-0.175008,28.875002,25.762501,-1.331250,-2.254,-2.063,-86.822,,walk
2025-10-18T17:50:17.008930,40278,166,0.446561,-9.709177,0.310170,-2.222152,-3.240469,-1.226959,2.668713,-6.468708,1.537129,0.801203,0.841137,-0.175008,28.875002,25.762501,-1.331250,-1.622,-2.632,-88.170,,walk
2025-10-18T17:50:17.058566,40327,167,0.384347,-8.513364,0.615255,-2.222152,-3.240469,-1.226959,2.606499,-5.272895,1.842214,0.801203,0.841137,-0.175008,28.875002,25.762501,-1.331250,-3.615,-2.578,-85.866,,walk
2025-10-18T17:50:17.109403,40378,168,0.286241,-7.947162,-0.022732,-2.222152,-3.240469,-1.226959,2.508394,-4.706693,1.204227,1.656160,0.706903,-0.123009,28.875002,25.762501,-1.331250,0.723,-2.063,-90.164,,walk
2025-10-18T17:50:17.159530,40428,169,-0.663111,-8.259725,-0.509970,-2.222152,-3.240469,-1.226959,1.559041,-5.019256,0.716989,1.656160,0.706903,-0.123009,28.875002,25.762501,-1.331250,10.305,4.581,-93.533,,walk
2025-10-18T17:50:17.208581,40477,170,1.100100,-11.215159,-1.224527,-1.330582,0.109489,0.373633,2.430682,-11.324649,-1.598160,1.656160,0.706903,-0.123009,28.218752,25.181252,-3.318750,6.615,-5.569,-96.231,,walk
2025-10-18T17:50:17.258404,40527,171,2.494518,-12.397812,-0.203390,-1.330582,0.109489,0.373633,3.825100,-12.507301,-0.577023,1.656160,0.706903,-0.123009,28.218752,25.181252,-3.318750,-3.836,-11.375,-90.940,,walk
2025-10-18T17:50:24.976036,48245,172,2.494518,-12.397812,-0.203390,-1.330582,0.109489,0.373633,3.825100,-12.507301,-0.577023,1.656160,0.706903,-0.123009,28.218752,25.181252,-3.318750,-3.836,-11.375,-90.940,,walk
2025-10-18T17:50:24.993538,48262,173,2.494518,-12.397812,-0.203390,0.125141,-0.188314,-2.861815,2.369376,-12.209497,2.658426,-2.911603,-0.035047,0.552053,30.806252,28.818750,-2.212500,-6.394,-11.375,-90.940,,walk
2025-10-18T17:50:25.046667,48316,174,-0.681057,-15.097216,-10.288539,0.125141,-0.188314,-2.861815,-0.806198,-14.908901,-7.426723,-2.911603,-0.035047,0.552053,30.806252,28.818750,-2.212500,31.757,2.135,-124.274,,walk
2025-10-18T17:50:25.082787,48352,175,-0.078963,-9.141779,-7.329515,0.920235,-1.195935,3.820688,-0.999198,-7.945844,-11.150203,-0.566408,-0.887027,-0.494863,31.125002,30.112501,1.518750,29.778,0.386,-128.721,,walk
2025-10-18T17:50:25.132686,48402,176,0.212961,-15.533009,0.792323,0.920235,-1.195935,3.820688,-0.707274,-14.337073,-3.028364,0.669718,0.007788,-0.080937,31.125002,30.112501,1.518750,-6.378,-0.784,-87.080,,walk
2025-10-18T17:50:25.182760,48452,177,-0.105284,-7.388139,1.108475,0.920235,-1.195935,3.820688,-1.025520,-6.192204,-2.712213,0.669718,0.007788,-0.080937,31.275002,30.431252,1.575000,-10.211,0.807,-81.467,,walk
2025-10-18T17:50:25.232949,48502,178,-1.641177,-6.027221,1.970490,0.920235,-1.195935,3.820688,-2.561413,-4.831286,-1.850198,0.669718,0.007788,-0.080937,31.275002,30.431252,1.575000,-6.431,14.511,-71.896,,walk
2025-10-18T17:50:25.283176,48552,179,-0.587737,-12.075977,1.441377,-0.879367,0.992314,-1.199295,0.291630,-13.068292,2.640672,0.669718,0.007788,-0.080937,31.275002,30.431252,1.575000,-6.684,2.767,-83.193,,walk
2025-10-18T17:50:25.332745,48602,180,1.433002,-10.796117,-1.023530,-0.879367,0.992314,-1.199295,2.312369,-11.788431,0.175765,1.058369,0.198220,-0.101248,31.275002,30.431252,1.575000,-5.123,-7.527,-95.416,,walk
2025-10-18T17:50:25.382683,48652,181,-1.094118,-8.338688,3.812664,-0.879367,0.992314,-1.199295,-0.214751,-9.331002,5.011959,1.058369,0.198220,-0.101248,31.256250,29.981251,-0.656250,-15.364,6.805,-65.429,,walk
2025-10-18T17:50:25.432991,48702,182,-1.307079,-8.949157,1.831407,-0.879367,0.992314,-1.199295,-0.427712,-9.941471,3.030702,1.058369,0.198220,-0.101248,31.256250,29.981251,-0.656250,-1.925,8.143,-78.434,,walk
2025-10-18T17:50:25.482778,48752,183,-0.567398,-9.069994,-3.030809,-0.249301,0.086496,0.346523,-0.318097,-9.156490,-3.377332,1.058369,0.198220,-0.101248,31.256250,29.981251,-0.656250,20.867,3.396,-108.477,,walk
2025-10-18T17:50:25.532998,48802,184,0.718146,-10.390533,-0.541077,-0.249301,0.086496,0.346523,0.967447,-10.477030,-0.887600,1.484206,0.091322,-0.365745,31.256250,29.981251,-0.656250,0.117,-3.948,-92.981,,walk
2025-10-18T17:50:25.582757,48852,185,0.867996,-10.002597,0.518345,-0.249301,0.086496,0.346523,1.117298,-10.089093,0.171822,1.484206,0.091322,-0.365745,30.750002,29.531252,-3.356250,-1.557,-4.953,-87.034,,walk
2025-10-18T17:50:25.632697,48902,186,2.258825,-11.886645,0.850050,-0.249301,0.086496,0.346523,2.508126,-11.973142,0.503528,1.484206,0.091322,-0.365745,30.750002,29.531252,-3.356250,-8.356,-10.733,-85.910,,walk
2025-10-18T17:50:25.682694,48952,187,0.410668,-11.944074,-0.354437,-0.719705,-0.640728,-1.372733,1.130374,-11.303346,1.018296,1.484206,0.091322,-0.365745,30.750002,29.531252,-3.356250,5.873,-1.968,-91.700,,walk
2025-10-18T17:50:25.732637,49001,188,1.462912,-13.283755,0.223729,-0.719705,-0.640728,-1.372733,2.182617,-12.643027,1.596462,-0.161722,0.182796,-0.001222,30.750002,29.531252,-3.356250,-0.976,-6.284,-89.035,,walk
2025-10-18T17:50:25.782613,49051,189,-0.876371,-10.036097,0.603290,-0.719705,-0.640728,-1.372733,-0.156666,-9.395369,1.976024,-0.161722,0.182796,-0.001222,30.243752,29.212502,-5.606250,12.264,4.982,-86.560,,walk
2025-10-18T17:50:25.832645,49102,190,-2.825026,-10.848759,2.729313,-0.719705,-0.640728,-1.372733,-2.105321,-10.208031,4.102046,-0.161722,0.182796,-0.001222,30.243752,29.212502,-5.606250,10.787,14.173,-75.879,,walk
2025-10-18T17:50:25.882875,49152,191,-0.800698,-12.358331,-0.283849,0.474175,-1.012296,-3.199346,-1.274873,-11.346035,2.915497,-0.161722,0.182796,-0.001222,30.243752,29.212502,-5.606250,15.409,3.706,-91.316,,walk
2025-10-18T17:50:25.932798,49202,192,1.448555,-12.845570,-0.356830,0.474175,-1.012296,-3.199346,0.974380,-11.833274,2.842516,-2.995213,-0.481271,0.425913,30.243752,29.212502,-5.606250,5.573,-6.431,-91.591,,walk
2025-10-18T17:50:25.982662,49252,193,-0.278764,-7.500602,0.008375,0.474175,-1.012296,-3.199346,-0.752939,-6.488306,3.207720,-2.995213,-0.481271,0.425913,30.075001,29.568750,-4.237500,10.087,2.128,-89.936,,walk
2025-10-18T17:50:26.033118,49302,194,-1.371686,-4.801498,-0.393918,0.474175,-1.012296,-3.199346,-1.845860,-3.789202,2.805427,-2.995213,-0.481271,0.425913,30.075001,29.568750,-4.237500,27.879,15.893,-94.690,,walk
2025-10-18T17:50:26.082983,49352,195,-1.407877,-4.152444,-0.104088,-0.157466,-1.992557,2.580051,-1.250411,-2.159888,-2.684139,-2.995213,-0.481271,0.425913,30.075001,29.568750,-4.237500,27.971,18.724,-91.436,,walk
2025-10-18T17:50:26.132684,49402,196,-1.764408,-4.228117,-1.831407,-0.157466,-1.992557,2.580051,-1.606941,-2.235561,-4.411458,0.042072,-0.639710,-0.286793,30.075001,29.568750,-4.237500,43.543,20.953,-113.420,,walk
2025-10-18T17:50:26.182633,49451,197,-2.135594,-17.543877,-8.298010,-0.157466,-1.992557,2.580051,-1.978128,-15.551320,-10.878061,0.042072,-0.639710,-0.286793,29.756250,30.543751,-1.087500,29.958,6.280,-115.313,,walk
2025-10-18T17:50:26.232690,49502,198,-2.049453,-12.855141,-9.520144,-0.157466,-1.992557,2.580051,-1.891986,-10.862584,-12.100196,0.042072,-0.639710,-0.286793,29.756250,30.543751,-1.087500,36.933,7.301,-126.523,,walk
2025-10-18T17:50:26.282678,49552,199,-1.486840,-10.319646,-3.171088,0.965124,-0.229723,4.010697,-2.451964,-10.089923,-7.181785,0.042072,-0.639710,-0.286793,29.756250,30.543751,-1.087500,25.329,7.842,-107.081,,walk
2025-10-18T17:50:26.332832,49602,200,-0.335294,-15.524633,0.515952,0.965124,-0.229723,4.010697,-1.300418,-15.294910,-3.494744,0.567859,0.395753,-0.181422,29.756250,30.543751,-1.087500,1.376,1.237,-88.097,,walk
2025-10-18T17:50:26.382665,49652,201,0.133998,-5.523233,1.121636,0.965124,-0.229723,4.010697,-0.831126,-5.293510,-2.889061,0.567859,0.395753,-0.181422,29.137501,30.900002,-1.050000,-11.251,-1.362,-78.521,,walk
2025-10-18T17:50:26.432633,49701,202,-1.589732,-8.965906,1.374078,0.965124,-0.229723,4.010697,-2.554855,-8.736183,-2.636618,0.567859,0.395753,-0.181422,29.137501,30.900002,-1.050000,2.637,9.941,-81.287,,walk
2025-10-18T17:50:26.482612,49751,203,0.766002,-11.948859,0.123230,-1.347792,0.305423,-1.996651,2.113794,-12.254282,2.119882,0.567859,0.395753,-0.181422,29.137501,30.900002,-1.050000,-2.230,-3.668,-89.409,,walk
2025-10-18T17:50:26.532700,49802,204,0.209372,-10.154541,0.575773,-1.347792,0.305423,-1.996651,1.557164,-10.459964,2.572424,1.014923,0.817543,-0.123697,29.137501,30.900002,-1.050000,-2.553,-1.179,-86.755,,walk
2025-10-18T17:50:26.583179,49852,205,-0.163908,-8.989835,1.696212,-1.347792,0.305423,-1.996651,1.183884,-9.295258,3.692864,1.014923,0.817543,-0.123697,28.443750,30.412500,-3.187500,-4.044,1.026,-79.315,,walk
2025-10-18T17:50:26.632636,49901,206,0.477667,-9.055637,0.493221,-1.347792,0.305423,-1.996651,1.825459,-9.361060,2.489872,1.014923,0.817543,-0.123697,28.443750,30.412500,-3.187500,0.061,-3.015,-86.882,,walk
2025-10-18T17:50:26.682658,49952,207,0.114855,-7.749754,0.391526,-0.569835,-0.033217,1.052691,0.684691,-7.716537,-0.661166,1.014923,0.817543,-0.123697,28.443750,30.412500,-3.187500,2.469,-0.848,-87.108,,walk
2025-10-18T17:50:26.732694,50002,208,-0.824627,-8.852247,-1.249652,-0.569835,-0.033217,1.052691,-0.254791,-8.819030,-2.302343,1.602100,0.062612,-0.232504,28.443750,30.412500,-3.187500,19.599,5.270,-98.035,,walk
2025-10-18T17:50:26.782639,50051,209,2.275574,-12.527024,-1.033101,-0.569835,-0.033217,1.052691,2.845410,-12.493807,-2.085792,1.602100,0.062612,-0.232504,27.600000,29.868752,-5.250000,5.496,-10.262,-94.715,,walk
2025-10-18T17:50:26.832639,50101,210,0.281456,-12.152548,1.181456,-0.569835,-0.033217,1.052691,0.851291,-12.119330,0.128765,1.602100,0.062612,-0.232504,27.600000,29.868752,-5.250000,3.512,-1.321,-84.447,,walk
2025-10-18T17:50:26.882643,50152,211,-1.382453,-11.953645,-0.912264,-0.157316,-0.183422,-1.341099,-1.225137,-11.770223,0.428835,1.602100,0.062612,-0.232504,27.600000,29.868752,-5.250000,21.615,6.578,-94.364,,walk
2025-10-18T17:50:26.932700,50202,212,0.882353,-12.984353,1.182653,-0.157316,-0.183422,-1.341099,1.039669,-12.800931,2.523751,-0.504789,0.657653,-0.011682,27.600000,29.868752,-5.250000,1.338,-3.872,-84.796,,walk
2025-10-18T17:50:26.982780,50252,213,-0.425025,-9.279665,1.238884,-0.157316,-0.183422,-1.341099,-0.267709,-9.096243,2.579983,-0.504789,0.657653,-0.011682,27.150002,29.343752,-6.506250,8.020,2.599,-82.396,,walk
2025-10-18T17:50:27.032640,50302,214,-1.040280,-12.123834,0.905085,-0.157316,-0.183422,-1.341099,-0.882964,-11.940412,2.246184,-0.504789,0.657653,-0.011682,27.150002,29.343752,-6.506250,13.963,4.891,-85.731,,walk
2025-10-18T17:50:27.082613,50351,215,1.194617,-13.778172,0.691825,0.047528,-1.303714,-3.071959,1.147088,-12.474458,3.763783,-0.504789,0.657653,-0.011682,27.150002,29.343752,-6.506250,5.509,-4.949,-87.125,,walk
2025-10-18T17:50:27.132726,50402,216,1.479662,-11.710773,0.361615,0.047528,-1.303714,-3.071959,1.432133,-10.407060,3.433574,-2.937412,-0.713851,0.188752,27.150002,29.343752,-6.506250,4.422,-7.198,-88.231,,walk
2025-10-18T17:50:27.182713,50452,217,-0.734896,-5.585446,-0.291027,0.047528,-1.303714,-3.071959,-0.782424,-4.281733,2.780932,-2.937412,-0.713851,0.188752,27.506250,29.625002,-3.862500,18.476,7.486,-92.983,,walk
2025-10-18T17:50:27.232712,50502,218,-0.925424,-5.140082,-0.354437,0.047528,-1.303714,-3.071959,-0.972953,-3.836369,2.717522,-2.937412,-0.713851,0.188752,27.506250,29.625002,-3.862500,22.036,10.183,-93.945,,walk
2025-10-18T17:50:27.282636,50551,219,-1.380060,-4.364509,-0.530309,-0.048138,-2.130686,2.933524,-1.331922,-2.233823,-3.463833,-2.937412,-0.713851,0.188752,27.506250,29.625002,-3.862500,31.559,17.427,-96.928,,walk
2025-10-18T17:50:27.332682,50602,220,-1.727319,-5.144868,-2.513660,-0.048138,-2.130686,2.933524,-1.679181,-3.014182,-5.447184,0.374984,-0.544418,-0.371701,27.506250,29.625002,-3.862500,42.937,16.786,-116.039,,walk
2025-10-18T17:50:27.382697,50652,221,-2.301895,-14.633905,-6.058328,-0.048138,-2.130686,2.933524,-2.253757,-12.503220,-8.991851,0.374984,-0.544418,-0.371701,27.731251,30.487501,-0.093750,29.363,8.269,-112.489,,walk
2025-10-18T17:50:27.432819,50702,222,-0.812662,-11.369496,-9.262916,-0.048138,-2.130686,2.933524,-0.764524,-9.238811,-12.196439,0.374984,-0.544418,-0.371701,27.731251,30.487501,-0.093750,36.546,3.172,-129.170,,walk
2025-10-18T17:50:27.483455,50752,223,-0.501595,-11.070394,-1.205384,0.765659,0.500462,4.076758,-1.267255,-11.570855,-5.282143,0.374984,-0.544418,-0.371701,27.731251,30.487501,-0.093750,9.497,2.579,-96.214,,walk
2025-10-18T17:50:27.533221,50802,224,0.086142,-15.540187,-1.034298,0.765659,0.500462,4.076758,-0.679518,-16.040648,-5.111056,0.411406,-0.173862,-0.010232,27.731251,30.487501,-0.093750,4.053,-0.317,-93.808,,walk
2025-10-18T17:50:27.582665,50852,225,-1.217349,-5.118547,2.628815,0.765659,0.500462,4.076758,-1.983008,-5.619009,-1.447944,0.411406,-0.173862,-0.010232,27.768751,30.600000,0.168750,-18.334,11.945,-62.816,,walk
2025-10-18T17:50:27.632873,50902,226,-2.967399,-6.215058,2.478964,0.765659,0.500462,4.076758,-3.733058,-6.715519,-1.597794,0.411406,-0.173862,-0.010232,27.768751,30.600000,0.168750,-2.303,23.916,-68.255,,walk
2025-10-18T17:50:27.682798,50952,227,1.589732,-12.430116,1.417448,-0.691335,0.101521,-2.391738,2.281067,-12.531636,3.809186,0.411406,-0.173862,-0.010232,27.768751,30.600000,0.168750,-14.485,-7.242,-83.494,,walk
2025-10-18T17:50:27.732812,51002,228,0.434596,-10.133006,0.093320,-0.691335,0.101521,-2.391738,1.125932,-10.234527,2.485058,1.124646,0.290152,-0.106211,27.768751,30.600000,0.168750,-3.384,-2.456,-89.472,,walk
2025-10-18T17:50:27.782790,51052,229,-0.239282,-9.257831,1.149153,-0.691335,0.101521,-2.391738,0.452053,-9.359351,3.540891,1.124646,0.290152,-0.106211,27.956251,30.056252,-1.893750,-2.283,1.469,-82.924,,walk
2025-10-18T17:50:27.832779,51102,230,0.041874,-9.022138,-0.340080,-0.691335,0.101521,-2.391738,0.733210,-9.123658,2.051658,1.124646,0.290152,-0.106211,27.956251,30.056252,-1.893750,5.910,-0.266,-92.159,,walk
2025-10-18T17:50:27.883268,51152,231,0.105284,-8.987442,-0.501595,-0.252469,-0.134697,1.418213,0.357754,-8.852745,-1.919808,1.124646,0.290152,-0.106211,27.956251,30.056252,-1.893750,6.604,-0.670,-93.194,,walk
2025-10-18T17:50:27.935252,51204,232,-0.289831,-9.357432,-0.049053,-0.252469,-0.134697,1.418213,-0.037361,-9.222735,-1.467266,1.130602,0.020234,-0.246401,27.956251,30.056252,-1.893750,5.970,1.774,-90.300,,walk
2025-10-18T17:50:27.982827,51252,233,1.198206,-10.812866,-0.002393,-0.252469,-0.134697,1.418213,1.450675,-10.678169,-1.420605,1.130602,0.020234,-0.246401,27.975000,29.325001,-4.200000,2.228,-6.323,-90.013,,walk
2025-10-18T17:50:28.033619,51302,234,2.907579,-12.042179,1.217349,-0.252469,-0.134697,1.418213,3.160048,-11.907482,-0.200864,1.130602,0.020234,-0.246401,27.975000,29.325001,-4.200000,-10.823,-13.508,-84.228,,walk
2025-10-18T17:50:28.082875,51352,235,0.441775,-11.879467,-0.488435,-0.003317,-0.329422,-1.443665,0.445092,-11.550045,0.955230,1.130602,0.020234,-0.246401,27.975000,29.325001,-4.200000,8.817,-2.128,-92.354,,walk
2025-10-18T17:50:28.132766,51402,236,1.610071,-12.768999,0.138784,-0.003317,-0.329422,-1.443665,1.613387,-12.439577,1.582449,-0.090024,-0.006108,0.056198,27.975000,29.325001,-4.200000,0.707,-7.186,-89.377,,walk
2025-10-18T17:50:28.183149,51452,237,0.572184,-10.577173,0.567398,-0.003317,-0.329422,-1.443665,0.575501,-10.247751,2.011063,-0.090024,-0.006108,0.056198,28.143751,28.743752,-6.131250,6.138,-3.092,-86.929,,walk
2025-10-18T17:50:28.233215,51502,238,-3.015256,-9.576375,1.174278,-0.003317,-0.329422,-1.443665,-3.011939,-9.246953,2.617943,-0.090024,-0.006108,0.056198,28.143751,28.743752,-6.131250,23.033,17.355,-83.009,,walk
2025-10-18T17:50:28.282867,51552,239,-2.459822,-11.600703,1.340579,0.590161,-1.127024,-2.464543,-3.049983,-10.473680,3.805122,-0.090024,-0.006108,0.056198,28.143751,28.743752,-6.131250,17.773,11.895,-83.408,,walk
2025-10-18T17:50:28.332678,51602,240,1.490429,-13.955241,-0.761217,0.590161,-1.127024,-2.464543,0.900268,-12.828218,1.703326,-2.803713,-0.407130,0.335202,28.143751,28.743752,-6.131250,9.269,-6.087,-93.122,,walk
2025-10-18T17:50:28.382639,51651,241,0.053839,-8.662915,0.005982,0.590161,-1.127024,-2.464543,-0.536322,-7.535892,2.470525,-2.803713,-0.407130,0.335202,28.593752,29.231251,-5.006250,9.535,-0.356,-89.960,,walk
2025-10-18T17:50:28.432876,51702,242,-1.189831,-5.827121,-0.513560,0.590161,-1.127024,-2.464543,-1.779992,-4.700098,1.950984,-2.803713,-0.407130,0.335202,28.593752,29.231251,-5.006250,25.916,11.497,-95.037,,walk
2025-10-18T17:50:28.482915,51752,243,-1.360918,-4.541577,0.039482,-0.165357,-1.300312,2.136333,-1.195561,-3.241265,-2.096852,-2.803713,-0.407130,0.335202,28.593752,29.231251,-5.006250,26.160,16.681,-89.502,,walk
2025-10-18T17:50:28.533958,51803,244,-1.401596,-3.737290,-0.574577,-0.165357,-1.300312,2.136333,-1.236239,-2.436978,-2.710910,-0.304813,-0.826171,-0.426830,28.593752,29.231251,-5.006250,37.017,20.338,-98.740,,walk
2025-10-18T17:50:28.582839,51852,245,-1.779961,-7.683952,-3.920341,-0.165357,-1.300312,2.136333,-1.614604,-6.383640,-6.056674,-0.304813,-0.826171,-0.426830,28.575001,30.656252,-2.081250,37.159,11.659,-117.031,,walk
2025-10-18T17:50:28.632727,51902,246,-0.137587,-16.685751,-9.459127,-0.165357,-1.300312,2.136333,0.027770,-15.385439,-11.595461,-0.304813,-0.826171,-0.426830,28.575001,30.656252,-2.081250,30.922,0.411,-119.549,,walk
2025-10-18T17:50:28.682795,51952,247,-0.822234,-8.544471,-7.556833,0.532252,-0.931634,4.041628,-1.354486,-7.612837,-11.598461,-0.304813,-0.826171,-0.426830,28.575001,30.656252,-2.081250,39.539,4.123,-131.490,,walk
2025-10-18T17:50:28.732756,52002,248,-0.604487,-13.919349,-1.818246,0.532252,-0.931634,4.041628,-1.136739,-12.987715,-5.859874,0.519907,-0.071622,-0.307027,28.575001,30.656252,-2.081250,14.295,2.466,-97.442,,walk
2025-10-18T17:50:28.782688,52052,249,-0.936192,-8.998210,0.762413,0.532252,-0.931634,4.041628,-1.468444,-8.066576,-3.279215,0.519907,-0.071622,-0.307027,28.068750,31.350000,-2.643750,5.901,5.919,-85.157,,walk
2025-10-18T17:50:28.832749,52102,250,-4.530810,-4.216154,2.133201,0.532252,-0.931634,4.041628,-5.063062,-3.284520,-1.908427,0.519907,-0.071622,-0.307027,28.068750,31.350000,-2.643750,14.841,43.798,-63.162,,walk
2025-10-18T17:50:28.882708,52152,251,0.563809,-11.709577,0.500399,-0.948872,0.367603,-1.229294,1.512680,-12.077180,1.729693,0.519907,-0.071622,-0.307027,28.068750,31.350000,-2.643750,-0.097,-2.754,-87.553,,walk
2025-10-18T17:50:28.932870,52202,252,2.132005,-12.151352,0.171087,-0.948872,0.367603,-1.229294,3.080877,-12.518955,1.400381,1.044702,1.028667,0.059405,28.068750,31.350000,-2.643750,-5.462,-9.951,-89.193,,walk
2025-10-18T17:50:28.982733,52252,253,0.049053,-10.312468,1.161117,-0.948872,0.367603,-1.229294,0.997924,-10.680071,2.390411,1.044702,1.028667,0.059405,27.712502,31.368752,-4.687500,2.102,-0.271,-83.576,,walk
2025-10-18T17:50:29.033079,52302,254,-0.481256,-9.436396,0.203390,-0.948872,0.367603,-1.229294,0.467615,-9.803999,1.432684,1.044702,1.028667,0.059405,27.712502,31.368752,-4.687500,11.165,2.919,-88.765,,walk
2025-10-18T17:50:29.082843,52352,255,0.427418,-9.521340,0.899103,-1.441654,0.448184,0.482958,1.869072,-9.969524,0.416145,1.044702,1.028667,0.059405,27.712502,31.368752,-4.687500,0.988,-2.559,-84.606,,walk
2025-10-18T17:50:29.132693,52402,256,-0.258425,-8.106285,0.579362,-1.441654,0.448184,0.482958,1.183229,-8.554469,0.096404,1.353332,0.400869,-0.250142,27.712502,31.368752,-4.687500,6.862,1.821,-85.912,,walk
2025-10-18T17:50:29.183065,52452,257,-0.319741,-8.636594,-1.253241,-1.441654,0.448184,0.482958,1.121913,-9.084778,-1.736199,1.353332,0.400869,-0.250142,27.393751,31.181252,-6.862500,24.318,2.098,-98.256,,walk
2025-10-18T17:50:29.232790,52502,258,2.029114,-11.296515,-1.535893,-1.441654,0.448184,0.482958,3.470767,-11.744699,-2.018851,1.353332,0.400869,-0.250142,27.393751,31.181252,-6.862500,12.293,-10.092,-97.743,,walk
2025-10-18T17:50:29.282688,52552,259,1.201795,-13.117155,-0.187837,0.243156,-0.944544,-0.678158,0.958639,-12.172611,0.490321,1.353332,0.400869,-0.250142,27.393751,31.181252,-6.862500,9.722,-5.234,-90.820,,walk
2025-10-18T17:50:29.333003,52602,260,0.450150,-13.876278,0.854836,0.243156,-0.944544,-0.678158,0.206994,-12.931734,1.532993,-0.252204,0.374678,-0.061848,27.393751,31.181252,-6.862500,8.335,-1.855,-86.475,,walk
2025-10-18T17:50:29.382724,52652,261,-2.659921,-9.316754,0.088534,0.243156,-0.944544,-0.678158,-2.903077,-8.372211,0.766692,-0.252204,0.374678,-0.061848,27.168751,30.900002,-8.493751,32.796,15.933,-89.456,,walk
2025-10-18T17:50:29.432726,52702,262,-3.652345,-11.440085,1.901995,0.243156,-0.944544,-0.678158,-3.895501,-10.495542,2.580153,-0.252204,0.374678,-0.061848,27.168751,30.900002,-8.493751,25.162,17.481,-80.561,,walk
2025-10-18T17:50:29.482789,52752,263,0.663111,-11.812469,0.788734,0.396458,-0.297352,-3.068962,0.266653,-11.515117,3.857696,-0.252204,0.374678,-0.061848,27.168751,30.900002,-8.493751,10.040,-3.206,-86.180,,walk
2025-10-18T17:50:29.532710,52802,264,0.948156,-11.446067,-0.484846,0.396458,-0.297352,-3.068962,0.551698,-11.148715,2.584116,-2.699181,-0.271598,0.419423,27.168751,30.900002,-8.493751,15.160,-4.731,-92.426,,walk
2025-10-18T17:50:29.582958,52852,265,-0.869193,-8.205886,-0.433400,0.396458,-0.297352,-3.068962,-1.265651,-7.908534,2.635562,-2.699181,-0.271598,0.419423,27.281252,31.743752,-6.581250,22.730,6.038,-93.023,,walk
2025-10-18T17:50:29.633037,52902,266,-1.404288,-5.140082,-0.440578,0.396458,-0.297352,-3.068962,-1.800746,-4.842731,2.628383,-2.699181,-0.271598,0.419423,27.281252,31.743752,-6.581250,33.335,15.227,-94.899,,walk
2025-10-18T17:50:29.683154,52952,267,-1.553839,-4.302295,-0.704985,-0.952905,-2.158454,3.079623,-0.600934,-2.143841,-3.784608,-2.699181,-0.271598,0.419423,27.281252,31.743752,-6.581250,40.821,19.617,-99.306,,walk
2025-10-18T17:50:29.732799,53002,268,-1.963012,-4.019643,-1.388435,-0.952905,-2.158454,3.079623,-1.010107,-1.861189,-4.468058,0.544723,-0.172106,-0.284655,27.281252,31.743752,-6.581250,50.623,24.778,-109.056,,walk
2025-10-18T17:50:29.782899,53052,269,-1.641177,-14.332410,-7.421638,-0.952905,-2.158454,3.079623,-0.688272,-12.173956,-10.501261,0.544723,-0.172106,-0.284655,27.000002,33.225002,-3.243750,37.783,5.806,-117.376,,walk
2025-10-18T17:50:29.833125,53102,270,-0.615255,-16.264315,-9.709177,-0.952905,-2.158454,3.079623,0.337650,-14.105861,-12.788800,0.544723,-0.172106,-0.284655,27.000002,33.225002,-3.243750,37.420,1.860,-120.836,,walk
2025-10-18T17:50:29.882918,53152,271,-2.129612,-11.206785,-5.095815,0.293313,0.744364,3.126489,-2.422925,-11.951149,-8.222303,0.544723,-0.172106,-0.284655,27.000002,33.225002,-3.243750,38.673,9.814,-114.452,,walk
2025-10-18T17:50:29.932726,53202,272,0.452543,-11.772986,1.553839,0.293313,0.744364,3.126489,0.159230,-12.517350,-1.572649,0.123544,0.240063,-0.317793,27.000002,33.225002,-3.243750,-4.542,-2.182,-82.481,,walk
2025-10-18T17:50:29.982823,53252,273,-1.861317,-4.730610,2.716153,0.293313,0.744364,3.126489,-2.154630,-5.474974,-0.410336,0.123544,0.240063,-0.317793,26.568750,33.843750,-2.362500,-17.038,18.841,-60.137,,walk
2025-10-18T17:50:30.032646,53302,274,-2.391626,-10.010972,1.770390,0.293313,0.744364,3.126489,-2.684939,-10.755336,-1.356099,0.123544,0.240063,-0.317793,26.568750,33.843750,-2.362500,5.330,13.238,-79.971,,walk
2025-10-18T17:50:30.082804,53352,275,1.424627,-11.789736,0.451346,-1.413667,-0.076389,-2.699799,2.838294,-11.713346,3.151145,0.123544,0.240063,-0.317793,26.568750,33.843750,-2.362500,-4.576,-6.885,-87.808,,walk
2025-10-18T17:50:30.132876,53402,276,0.111266,-10.104292,2.397608,-1.413667,-0.076389,-2.699799,1.524933,-10.027903,5.097407,1.498179,1.874767,0.046195,26.568750,33.843750,-2.362500,-12.288,-0.614,-76.651,,walk
2025-10-18T17:50:30.183407,53452,277,0.797109,-9.054440,0.994816,-1.413667,-0.076389,-2.699799,2.210776,-8.978051,3.694615,1.498179,1.874767,0.046195,26.906252,33.356251,-3.750000,-4.764,-5.001,-83.730,,walk
2025-10-18T17:50:30.233493,53502,278,0.574577,-9.230313,-0.258425,-1.413667,-0.076389,-2.699799,1.988244,-9.153924,2.441374,1.498179,1.874767,0.046195,26.906252,33.356251,-3.750000,6.329,-3.561,-91.604,,walk
2025-10-18T17:50:30.283377,53552,279,-0.831805,-8.283653,1.082154,-1.460421,-0.445227,1.057714,0.628616,-7.838427,0.024440,1.498179,1.874767,0.046195,26.906252,33.356251,-3.750000,4.381,5.686,-82.557,,walk
2025-10-18T17:50:30.333151,53602,280,1.563411,-10.027721,-1.392025,-1.460421,-0.445227,1.057714,3.023831,-9.582495,-2.449739,1.203904,0.726679,-0.087733,26.906252,33.356251,-3.750000,8.769,-8.779,-97.903,,walk
2025-10-18T17:50:30.383241,53652,281,2.710171,-11.095519,-0.616451,-1.460421,-0.445227,1.057714,4.170591,-10.650292,-1.674165,1.203904,0.726679,-0.087733,27.487501,33.056252,-4.668750,-0.289,-13.706,-93.180,,walk
2025-10-18T17:50:30.432833,53702,282,1.021137,-12.540185,-0.119641,-1.460421,-0.445227,1.057714,2.481558,-12.094958,-1.177355,1.203904,0.726679,-0.087733,27.487501,33.056252,-4.668750,5.629,-4.655,-90.547,,walk
2025-10-18T17:50:30.483382,53752,283,-0.271585,-12.645768,-0.627219,-0.131887,-0.078381,-1.506233,-0.139698,-12.567388,0.879015,1.203904,0.726679,-0.087733,27.487501,33.056252,-4.668750,14.121,1.229,-92.839,,walk
2025-10-18T17:50:30.532722,53802,284,0.466900,-12.227921,0.909871,-0.131887,-0.078381,-1.506233,0.598787,-12.149541,2.416104,-0.909704,0.768599,-0.151643,27.487501,33.056252,-4.668750,2.396,-2.181,-85.745,,walk
2025-10-18T17:50:30.582775,53852,285,-3.751647,-10.313663,1.449751,-0.131887,-0.078381,-1.506233,-3.619760,-10.235283,2.955985,-0.909704,0.768599,-0.151643,27.975000,32.906250,-4.743750,20.476,19.810,-81.999,,walk
2025-10-18T17:50:30.633552,53902,286,-3.332604,-11.512169,1.508376,-0.131887,-0.078381,-1.506233,-3.200717,-11.433788,3.014609,-0.909704,0.768599,-0.151643,27.975000,32.906250,-4.743750,17.160,16.015,-82.535,,walk
2025-10-18T17:50:30.683114,53952,287,0.495613,-12.930514,-0.111266,0.596645,-1.556615,-3.161755,-0.101032,-11.373899,3.050489,-0.909704,0.768599,-0.151643,27.975000,32.906250,-4.743750,7.995,-2.195,-90.493,,walk
2025-10-18T17:50:30.733053,54002,288,-0.525524,-9.358628,-0.195015,0.596645,-1.556615,-3.161755,-1.122169,-7.802013,2.966740,-2.941230,-0.716600,0.597561,27.975000,32.906250,-4.743750,14.177,3.213,-91.194,,walk
2025-10-18T17:50:30.783569,54052,289,-1.253241,-6.303592,-0.117248,0.596645,-1.556615,-3.161755,-1.849886,-4.746977,3.044507,-2.941230,-0.716600,0.597561,28.743752,32.906250,-0.806250,14.030,11.243,-91.066,,walk
2025-10-18T17:50:30.833003,54102,290,-1.055833,-4.449454,-0.267996,0.596645,-1.556615,-3.161755,-1.652478,-2.892839,2.893759,-2.941230,-0.716600,0.597561,28.743752,32.906250,-0.806250,18.645,13.326,-93.447,,walk
2025-10-18T17:50:30.882832,54152,291,-1.486840,-4.008875,-1.207777,-0.689775,-2.251044,3.654625,-0.797065,-1.757831,-4.862402,-2.941230,-0.716600,0.597561,28.743752,32.906250,-0.806250,35.925,19.551,-106.766,,walk
2025-10-18T17:50:30.933310,54202,292,-2.981756,-5.911169,-4.045964,-0.689775,-2.251044,3.654625,-2.291981,-3.660125,-7.700589,1.056842,-0.119421,-0.260679,28.743752,32.906250,-0.806250,47.194,22.600,-124.390,,walk
2025-10-18T17:50:30.982832,54252,293,-2.643172,-16.672590,-9.007781,-0.689775,-2.251044,3.654625,-1.953396,-14.421546,-12.662406,1.056842,-0.119421,-0.260679,29.812502,33.093750,4.331250,27.347,7.940,-118.381,,walk
2025-10-18T17:50:31.033210,54302,294,-3.290729,-9.451948,-8.229815,-0.689775,-2.251044,3.654625,-2.600954,-7.200904,-11.884440,1.056842,-0.119421,-0.260679,29.812502,33.093750,4.331250,39.048,14.712,-131.046,,walk
2025-10-18T17:50:31.082927,54352,295,-0.744467,-14.172988,-1.347757,0.471454,1.813008,3.078418,-1.215921,-15.985996,-4.426175,1.056842,-0.119421,-0.260679,29.812502,33.093750,4.331250,0.720,2.993,-95.432,,walk
2025-10-18T17:50:31.132615,54401,296,1.231705,-10.956735,1.262812,0.471454,1.813008,3.078418,0.760251,-12.769742,-1.815606,1.056842,-0.119421,-0.260679,29.812502,33.093750,4.331250,-21.280,-6.372,-83.425,,walk
2025-10-18T17:50:31.183084,54452,297,-2.618047,-6.043971,1.613660,0.471454,1.813008,3.078418,-3.089501,-7.856979,-1.464758,-0.091780,0.254723,-0.339631,30.637501,32.625000,6.600000,-5.322,22.710,-75.051,,walk
2025-10-18T17:50:31.232634,54501,298,0.579362,-11.209178,0.569791,0.471454,1.813008,3.078418,0.107908,-13.022186,-2.508627,-0.091780,0.254723,-0.339631,30.637501,32.625000,6.600000,-17.975,-2.955,-87.090,,walk
2025-10-18T17:50:31.282832,54552,299,1.593321,-10.852348,0.076570,-1.863180,-0.769458,-3.201469,3.456500,-10.082891,3.278040,-0.091780,0.254723,-0.339631,30.637501,32.625000,6.600000,-20.902,-8.352,-89.596,,walk
2025-10-18T17:50:31.333107,54602,300,0.050249,-9.407681,0.864407,-1.863180,-0.769458,-3.201469,1.913429,-8.638224,4.065876,1.567663,0.552588,0.069789,30.637501,32.625000,6.600000,-17.621,-0.305,-84.750,,walk
2025-10-18T17:50:31.382989,54652,301,-0.102891,-8.796016,0.145962,-1.863180,-0.769458,-3.201469,1.760288,-8.026558,3.347431,1.567663,0.552588,0.069789,31.612501,31.593752,6.712500,-12.225,0.670,-89.049,,walk
2025-10-18T17:50:31.433139,54702,302,0.403490,-8.930014,-0.444168,-1.863180,-0.769458,-3.201469,2.266669,-8.160556,2.757301,1.567663,0.552588,0.069789,31.612501,31.593752,6.712500,-11.830,-2.584,-92.847,,walk
2025-10-18T17:50:31.482661,54752,303,-0.330509,-9.129815,-0.530309,0.244801,-0.047741,0.757742,-0.575310,-9.082074,-1.288051,1.567663,0.552588,0.069789,31.612501,31.593752,6.712500,-6.674,2.070,-93.324,,walk
2025-10-18T17:50:31.533027,54802,304,-0.629611,-9.760623,-1.054637,0.244801,-0.047741,0.757742,-0.874413,-9.712882,-1.812378,1.567663,0.552588,0.069789,31.612501,31.593752,6.712500,-2.247,3.669,-96.167,,walk
2025-10-18T17:50:31.582683,54852,305,3.208177,-12.248260,0.295813,0.244801,-0.047741,0.757742,2.963376,-12.200520,-0.461929,1.050963,-0.039323,-0.080021,32.418751,30.937502,6.262500,-26.758,-14.674,-88.616,,walk
2025-10-18T17:50:31.632642,54902,306,0.799502,-13.028620,-1.153939,0.244801,-0.047741,0.757742,0.554701,-12.980879,-1.911681,1.050963,-0.039323,-0.080021,32.418751,30.937502,6.262500,-9.703,-3.498,-95.061,,walk
2025-10-18T17:50:31.682793,54952,307,1.880460,-13.102798,-0.349651,-0.093578,0.267098,-2.244626,1.974037,-13.369896,1.894975,1.050963,-0.039323,-0.080021,32.418751,30.937502,6.262500,-17.727,-8.164,-91.529,,walk
2025-10-18T17:50:31.732656,55002,308,-1.872085,-9.983455,0.393918,-0.093578,0.267098,-2.244626,-1.778507,-10.250553,2.638544,-1.592021,0.047875,0.099492,32.418751,30.937502,6.262500,-2.436,10.613,-87.740,,walk
2025-10-18T17:50:31.782819,55052,309,-2.945864,-11.157732,3.005684,-0.093578,0.267098,-2.244626,-2.852286,-11.424830,5.250310,-1.592021,0.047875,0.099492,32.681252,30.525002,6.675000,-10.857,14.302,-74.923,,walk
2025-10-18T17:50:31.832951,55102,310,1.558625,-13.524234,-0.253639,-0.093578,0.267098,-2.244626,1.652203,-13.791332,1.990987,-1.592021,0.047875,0.099492,32.681252,30.525002,6.675000,-17.174,-6.573,-91.074,,walk
2025-10-18T17:50:31.882648,55152,311,1.047458,-10.500603,0.178265,0.872267,-1.934047,-1.901518,0.175191,-8.566556,2.079783,-1.592021,0.047875,0.099492,32.681252,30.525002,6.675000,-18.083,-5.696,-89.027,,walk
2025-10-18T17:50:31.933791,55203,312,-1.051047,-6.515656,-0.401097,0.872267,-1.934047,-1.901518,-1.923315,-4.581609,1.500421,-1.592021,0.047875,0.099492,32.681252,30.525002,6.675000,0.830,9.146,-93.523,,walk
2025-10-18T17:50:31.982678,55252,313,-1.558625,-4.885247,-0.028714,0.872267,-1.934047,-1.901518,-2.430892,-2.951200,1.872804,-2.486301,-1.934019,-0.089336,33.000000,30.131250,9.806251,1.440,17.695,-90.337,,walk
2025-10-18T17:50:32.032908,55302,314,-1.561018,-4.262814,-0.386740,0.872267,-1.934047,-1.901518,-2.433285,-2.328767,1.514778,-2.486301,-1.934019,-0.089336,33.000000,30.131250,9.806251,7.965,20.037,-95.184,,walk
2025-10-18T17:50:32.083268,55352,315,-2.160719,-4.515256,-2.042274,0.145367,-2.910020,4.843860,-2.306086,-1.605237,-6.886134,-2.486301,-1.934019,-0.089336,33.000000,30.131250,9.806251,25.427,23.558,-114.337,,walk
2025-10-18T17:50:32.132952,55402,316,-2.813062,-15.728024,-7.573583,0.145367,-2.910020,4.843860,-2.958429,-12.818004,-12.417443,1.463208,0.024510,-0.299544,33.000000,30.131250,9.806251,14.894,9.154,-115.712,,walk
2025-10-18T17:50:32.183166,55452,317,-1.275973,-14.932111,-9.351450,0.145367,-2.910020,4.843860,-1.421340,-12.022091,-14.195310,1.463208,0.024510,-0.299544,33.393753,29.981251,12.281251,12.493,4.142,-122.057,,walk
2025-10-18T17:50:32.232793,55502,318,0.460917,-8.916854,-5.142475,0.145367,-2.910020,4.843860,0.315550,-6.006834,-9.986335,1.463208,0.024510,-0.299544,33.393753,29.981251,12.281251,5.321,-2.564,-119.973,,walk
2025-10-18T17:50:32.282737,55552,319,1.580160,-14.501103,-1.267598,-1.137933,3.703486,2.533486,2.718094,-18.204590,-3.801084,1.463208,0.024510,-0.299544,33.393753,29.981251,12.281251,-22.408,-6.195,-94.996,,walk
2025-10-18T17:50:32.332885,55602,320,-1.821835,-5.931508,1.083350,-1.137933,3.703486,2.533486,-0.683902,-9.634995,-1.450136,1.463208,0.024510,-0.299544,33.393753,29.981251,12.281251,-11.847,16.812,-79.649,,walk
2025-10-18T17:50:32.382918,55652,321,-2.189433,-6.644868,0.069392,-1.137933,3.703486,2.533486,-1.051499,-10.348355,-2.464094,-0.146909,0.132630,-0.607411,33.337502,30.093752,11.756250,-1.698,18.236,-89.402,,walk
2025-10-18T17:50:32.432795,55702,322,0.646361,-12.048162,0.915853,-1.137933,3.703486,2.533486,1.784295,-15.751648,-1.617633,-0.146909,0.132630,-0.607411,33.337502,30.093752,11.756250,-25.762,-3.062,-85.653,,walk
2025-10-18T17:50:32.482836,55752,323,0.840180,-10.560424,0.914656,-1.425839,-2.966124,-2.904106,2.266018,-7.594300,3.818762,-0.146909,0.132630,-0.607411,33.337502,30.093752,11.756250,-27.612,-4.532,-85.050,,walk
2025-10-18T17:50:32.532868,55802,324,-0.338884,-9.594321,0.612862,-1.425839,-2.966124,-2.904106,1.086955,-6.628198,3.516967,1.439691,0.468214,0.328254,33.337502,30.093752,11.756250,-20.291,2.019,-86.345,,walk
2025-10-18T17:50:32.584010,55853,325,-0.416650,-9.154940,0.015553,-1.425839,-2.966124,-2.904106,1.009188,-6.188816,2.919659,1.439691,0.468214,0.328254,32.775002,30.243752,9.450001,-13.562,2.606,-89.903,,walk
2025-10-18T17:50:32.633303,55902,326,0.075374,-7.657630,0.952942,-1.425839,-2.966124,-2.904106,1.501213,-4.691507,3.857047,1.439691,0.468214,0.328254,32.775002,30.243752,9.450001,-22.339,-0.560,-82.906,,walk
2025-10-18T17:50:32.683255,55952,327,-0.374776,-8.069196,-0.169890,-0.911718,0.935519,0.938990,0.536943,-9.004715,-1.108880,1.439691,0.468214,0.328254,32.775002,30.243752,9.450001,-12.378,2.659,-91.206,,walk
2025-10-18T17:50:32.732904,56002,328,0.553041,-10.842776,-1.006780,-0.911718,0.935519,0.938990,1.464760,-11.778296,-1.945770,1.439691,0.468214,0.328254,32.775002,30.243752,9.450001,-14.359,-2.907,-95.305,,walk
2025-10-18T17:50:32.782780,56052,329,2.158326,-12.257833,1.180260,-0.911718,0.935519,0.938990,3.070044,-13.193352,0.241270,1.193061,0.287327,-0.056962,32.212502,30.018751,6.112500,-25.157,-9.941,-84.500,,walk
2025-10-18T17:50:32.832898,56102,330,-0.812662,-12.345170,-0.774377,-0.911718,0.935519,0.938990,0.099056,-13.280689,-1.713367,1.193061,0.287327,-0.056962,32.212502,30.018751,6.112500,-3.693,3.759,-93.589,,walk
2025-10-18T17:50:32.884051,56153,331,3.258426,-13.912170,0.318545,-0.822648,0.523231,-2.013351,4.081074,-14.435401,2.331896,1.193061,0.287327,-0.056962,32.212502,30.018751,6.112500,-25.006,-13.179,-88.688,,walk
2025-10-18T17:50:32.933225,56202,332,-3.369693,-6.119345,-0.334098,-0.822648,0.523231,-2.013351,-2.547045,-6.642575,1.679254,-1.049130,0.076050,-0.247393,32.212502,30.018751,6.112500,20.711,28.804,-93.125,,walk
2025-10-18T17:50:32.983215,56252,333,-3.732504,-11.322837,1.015155,-0.822648,0.523231,-2.013351,-2.909856,-11.846067,3.028506,-1.049130,0.076050,-0.247393,31.706251,30.018751,3.918750,6.303,18.176,-84.877,,walk
2025-10-18T17:50:33.033290,56302,334,0.276371,-13.896617,0.677468,-0.822648,0.523231,-2.013351,1.099019,-14.419847,2.690819,-1.049130,0.076050,-0.247393,31.706251,30.018751,3.918750,-10.751,-1.138,-87.209,,walk
2025-10-18T17:50:33.083201,56352,335,0.147159,-13.561322,0.139980,0.225805,-2.387358,-2.323374,-0.078647,-11.173965,2.463354,-1.049130,0.076050,-0.247393,31.706251,30.018751,3.918750,-8.217,-0.622,-89.409,,walk
2025-10-18T17:50:33.133182,56402,336,-1.769193,-7.838289,-0.425025,0.225805,-2.387358,-2.323374,-1.994998,-5.450931,1.898349,-1.049130,0.076050,-0.247393,31.706251,30.018751,3.918750,8.531,12.701,-93.104,,walk
2025-10-18T17:50:33.182866,56452,337,-0.453739,-2.796312,-1.189831,0.225805,-2.387358,-2.323374,-0.679544,-0.408955,1.133543,-2.712773,-1.290262,0.382161,31.575001,29.943750,5.081250,19.604,8.492,-113.050,,walk
2025-10-18T17:50:33.233234,56502,338,-0.081356,-3.267998,-0.005982,0.225805,-2.387358,-2.323374,-0.307161,-0.880640,2.317392,-2.712773,-1.290262,0.382161,31.575001,29.943750,5.081250,-7.619,1.426,-90.105,,walk
2025-10-18T17:50:33.283254,56552,339,-0.734896,-3.000899,-2.025524,-1.039544,-2.303247,4.140100,0.304648,-0.697651,-6.165624,-2.712773,-1.290262,0.382161,31.575001,29.943750,5.081250,29.162,11.474,-124.018,,walk
2025-10-18T17:50:33.335229,56604,340,-2.674278,-10.506585,-5.269295,-1.039544,-2.303247,4.140100,-1.634735,-8.203338,-9.409394,-2.712773,-1.290262,0.382161,31.575001,29.943750,5.081250,25.549,12.818,-116.635,,walk
2025-10-18T17:50:33.383240,56652,341,-3.084647,-18.238094,-8.890532,-1.039544,-2.303247,4.140100,-2.045104,-15.934847,-13.030632,1.212914,-0.357422,-0.294963,31.518751,30.281252,6.356250,20.297,8.645,-115.988,,walk
2025-10-18T17:50:33.432850,56702,342,-1.546661,-3.136392,-4.875675,-1.039544,-2.303247,4.140100,-0.507117,-0.833145,-9.015775,1.212914,-0.357422,-0.294963,31.518751,30.281252,6.356250,39.591,14.938,-147.248,,walk
2025-10-18T17:50:33.483254,56752,343,2.580958,-25.108187,-1.220938,-0.431097,4.263917,2.763520,3.012055,-29.372104,-3.984458,1.212914,-0.357422,-0.294963,31.518751,30.281252,6.356250,-14.709,-5.862,-92.784,,walk
2025-10-18T17:50:33.533618,56802,344,-2.785545,-0.728914,4.764110,-0.431097,4.263917,2.763520,-2.354448,-4.992831,2.000590,1.212914,-0.357422,-0.294963,31.518751,30.281252,6.356250,-42.966,30.027,-8.699,,walk
2025-10-18T17:50:33.582866,56852,345,-1.497608,-10.173684,-0.469292,-0.431097,4.263917,2.763520,-1.066511,-14.437602,-3.232813,-0.366737,0.255029,-0.321458,31.200001,30.675001,5.437500,1.038,8.365,-92.641,,walk
2025-10-18T17:50:33.633544,56902,346,3.308676,-15.161821,0.659522,-0.431097,4.263917,2.763520,3.739772,-19.425739,-2.103999,-0.366737,0.255029,-0.321458,31.200001,30.675001,5.437500,-24.364,-12.299,-87.509,,walk
2025-10-18T17:50:33.682863,56952,347,0.433400,-10.531710,-0.096909,-2.032412,-3.987728,-2.412564,2.465812,-6.543982,2.315655,-0.366737,0.255029,-0.321458,31.200001,30.675001,5.437500,-11.742,-2.356,-90.527,,walk
2025-10-18T17:50:33.733510,57002,348,-0.130409,-9.127422,0.842872,-2.032412,-3.987728,-2.412564,1.902003,-5.139694,3.255436,-0.366737,0.255029,-0.321458,31.200001,30.675001,5.437500,-13.992,0.815,-84.724,,walk
2025-10-18T17:50:33.782917,57052,349,-0.756431,-7.801200,0.677468,-2.032412,-3.987728,-2.412564,1.275981,-3.813472,3.090032,1.733585,0.641390,0.112701,30.806252,30.618752,3.675000,-6.150,5.518,-85.037,,walk
2025-10-18T17:50:33.832858,57102,350,-0.069392,-7.167999,0.256032,-2.032412,-3.987728,-2.412564,1.963020,-3.180271,2.668596,1.733585,0.641390,0.112701,30.806252,30.618752,3.675000,-8.243,0.554,-87.954,,walk
2025-10-18T17:50:33.882908,57152,351,-1.264009,-8.158030,-2.009971,-0.025545,0.925827,1.069671,-1.238464,-9.083857,-3.079641,1.733585,0.641390,0.112701,30.806252,30.618752,3.675000,14.891,8.556,-103.841,,walk
2025-10-18T17:50:33.933258,57202,352,2.283949,-13.336397,-0.211765,-0.025545,0.925827,1.069671,2.309494,-14.262224,-1.281435,1.733585,0.641390,0.112701,30.806252,30.618752,3.675000,-15.653,-9.717,-90.910,,walk
2025-10-18T17:50:33.983103,57252,353,3.417549,-13.749458,0.641576,-0.025545,0.925827,1.069671,3.443094,-14.675285,-0.428095,1.289575,0.251211,-0.111632,30.318750,30.281252,0.562500,-17.535,-13.944,-87.328,,walk
2025-10-18T17:50:34.033747,57303,354,-0.162712,-14.113167,-0.653540,-0.025545,0.925827,1.069671,-0.137167,-15.038994,-1.723210,1.289575,0.251211,-0.111632,30.318750,30.281252,0.562500,2.243,0.660,-92.651,,walk
2025-10-18T17:50:34.082856,57352,355,0.627219,-10.827224,0.751645,-1.285796,1.133398,-2.561801,1.913015,-11.960622,3.313446,1.289575,0.251211,-0.111632,30.318750,30.281252,0.562500,-8.284,-3.307,-86.029,,walk
2025-10-18T17:50:34.133723,57403,356,-5.553143,-6.305985,0.875175,-1.285796,1.133398,-2.561801,-4.267347,-7.439383,3.436976,1.289575,0.251211,-0.111632,30.318750,30.281252,0.562500,33.138,41.097,-82.099,,walk
2025-10-18T17:50:34.182849,57452,357,-4.686343,-11.162518,-2.810669,-1.285796,1.133398,-2.561801,-3.400547,-12.295916,-0.248868,-1.931346,0.000229,0.162714,29.981251,30.112501,-1.143750,35.282,22.152,-104.133,,walk
2025-10-18T17:50:34.232961,57502,358,3.116053,-14.928521,-0.999602,-1.285796,1.133398,-2.561801,4.401850,-16.061919,1.562199,-1.931346,0.000229,0.162714,29.981251,30.112501,-1.143750,-5.733,-11.765,-93.831,,walk
2025-10-18T17:50:34.283270,57552,359,1.339383,-9.289237,-0.633201,0.734011,-3.640617,-0.762618,0.605372,-5.648620,0.129417,-1.931346,0.000229,0.162714,29.981251,30.112501,-1.143750,-2.076,-8.186,-93.900,,walk
2025-10-18T17:50:34.332894,57602,360,-2.419144,-2.505285,0.210568,0.734011,-3.640617,-0.762618,-3.153155,1.135332,0.973186,-1.931346,0.000229,0.162714,29.981251,30.112501,-1.143750,42.417,43.897,-85.196,,walk
2025-10-18T17:50:34.383668,57653,361,-1.544268,-4.341777,-0.045464,0.734011,-3.640617,-0.762618,-2.278279,-0.701159,0.717154,-2.408265,-1.129609,0.489136,30.056252,30.431252,1.387500,17.513,19.578,-90.600,,walk
2025-10-18T17:50:34.433192,57702,362,-1.628017,-2.488536,-1.415056,0.734011,-3.640617,-0.762618,-2.362028,1.152082,-0.652438,-2.408265,-1.129609,0.489136,30.056252,30.431252,1.387500,45.104,29.627,-119.624,,walk
2025-10-18T17:50:34.482840,57752,363,-1.641177,-11.595918,-8.451151,-0.595652,-2.228548,5.103319,-1.045525,-9.367370,-13.554470,-2.408265,-1.129609,0.489136,30.056252,30.431252,1.387500,33.100,6.525,-126.085,,walk
2025-10-18T17:50:34.540370,57809,364,-1.311865,-26.631817,-10.457532,-0.595652,-2.228548,5.103319,-0.716213,-24.403269,-15.560851,-2.408265,-1.129609,0.489136,30.056252,30.431252,1.387500,20.273,2.625,-111.438,,walk
2025-10-18T17:50:34.583217,57852,365,-3.943073,-0.267996,-7.572386,-0.595652,-2.228548,5.103319,-3.347420,1.960552,-12.675705,1.243761,0.349099,-0.486769,30.150002,30.975000,3.731250,47.741,27.492,-177.973,,walk
2025-10-18T17:50:34.633672,57903,366,-0.722932,-22.362123,4.219743,-0.595652,-2.228548,5.103319,-0.127279,-20.133575,-0.883576,1.243761,0.349099,-0.486769,30.150002,30.975000,3.731250,-15.636,1.820,-79.314,,walk
2025-10-18T17:50:34.683414,57952,367,-1.143171,-1.417448,9.032906,-1.573063,5.155978,0.527557,0.429891,-6.573426,8.505348,1.243761,0.349099,-0.486769,30.150002,30.975000,3.731250,-45.202,7.127,-8.918,,walk
2025-10-18T17:50:34.732860,58002,368,-3.150749,-7.379764,-3.507280,-1.573063,5.155978,0.527557,-1.577687,-12.535742,-4.034837,1.243761,0.349099,-0.486769,30.150002,30.975000,3.731250,34.092,21.087,-115.420,,walk
2025-10-18T17:50:34.783398,58052,369,2.054238,-15.329319,4.453043,-1.573063,5.155978,0.527557,3.627301,-20.485297,3.925486,0.516777,0.400105,-0.340395,30.168751,31.143751,3.825000,-28.571,-7.333,-73.802,,walk
2025-10-18T17:50:34.833302,58102,370,1.000798,-9.648160,1.328615,-1.573063,5.155978,0.527557,2.573861,-14.804138,0.801058,0.516777,0.400105,-0.340395,30.168751,31.143751,3.825000,-20.498,-5.867,-82.159,,walk
2025-10-18T17:50:34.883130,58152,371,-0.324527,-8.447561,1.369293,-1.621017,-3.784671,-0.494940,1.296490,-4.662890,1.864233,0.516777,0.400105,-0.340395,30.168751,31.143751,3.825000,-14.133,2.172,-80.793,,walk
2025-10-18T17:50:34.934223,58203,372,0.015553,-7.636095,-0.470489,-1.621017,-3.784671,-0.494940,1.636570,-3.851424,0.024452,0.516777,0.400105,-0.340395,30.168751,31.143751,3.825000,-3.725,-0.116,-93.526,,walk
2025-10-18T17:50:34.983265,58252,373,-0.210568,-8.108678,-1.508376,-1.621017,-3.784671,-0.494940,1.410448,-4.324007,-1.013435,1.703424,1.006524,0.035582,30.093752,30.937502,2.306250,7.832,1.462,-100.538,,walk
2025-10-18T17:50:35.033383,58302,374,-0.463310,-10.608280,-1.528715,-1.621017,-3.784671,-0.494940,1.157706,-6.823609,-1.033774,1.703424,1.006524,0.035582,30.093752,30.937502,2.306250,6.466,2.475,-98.200,,walk
2025-10-18T17:50:35.088533,58357,375,1.941476,-11.977572,-1.103689,-1.018205,0.224549,0.454617,2.959681,-12.202122,-1.558307,1.703424,1.006524,0.035582,30.093752,30.937502,2.306250,-8.153,-9.169,-95.265,,walk
2025-10-18T17:50:35.132667,58402,376,2.386841,-13.482359,2.353341,-1.018205,0.224549,0.454617,3.405045,-13.706908,1.898724,1.703424,1.006524,0.035582,30.093752,30.937502,2.306250,-23.389,-9.893,-80.099,,walk
2025-10-18T17:50:35.182995,58452,377,-1.169492,-12.163316,-2.857329,-1.018205,0.224549,0.454617,-0.151288,-12.387865,-3.311947,0.512883,0.462717,-0.004810,30.150002,30.506250,0.018750,17.895,5.347,-103.220,,walk
2025-10-18T17:50:35.232711,58502,378,2.197808,-12.855141,1.693819,-1.018205,0.224549,0.454617,3.216012,-13.079690,1.239202,0.512883,0.462717,-0.004810,30.150002,30.506250,0.018750,-16.844,-9.620,-82.494,,walk
2025-10-18T17:50:35.283298,58552,379,-4.013661,-8.360223,0.258425,-1.018205,0.224549,0.454617,-2.995456,-8.584772,-0.196193,0.512883,0.462717,-0.004810,30.150002,30.506250,0.018750,23.951,25.635,-88.229,,walk
2025-10-18T17:50:35.333734,58603,380,-4.056732,-13.040585,5.016852,-0.123231,-0.123701,-3.696228,-3.933501,-12.916883,8.713079,0.512883,0.462717,-0.004810,30.150002,30.506250,0.018750,-6.157,16.190,-68.958,,walk
2025-10-18T17:50:35.382867,58652,381,4.066303,-14.681762,-0.075374,-0.123231,-0.123701,-3.696228,4.189534,-14.558061,3.620854,-2.447436,-0.304584,0.241056,30.206251,30.450001,-0.000000,-15.194,-15.481,-90.294,,walk
2025-10-18T17:50:35.433140,58702,382,1.193420,-10.231112,0.733699,-0.123231,-0.123701,-3.696228,1.316651,-10.107410,4.429927,-2.447436,-0.304584,0.241056,30.206251,30.450001,-0.000000,-10.683,-6.636,-85.898,,walk
2025-10-18T17:50:35.483250,58752,383,-2.382055,-2.808276,-0.192622,-0.207570,-2.005692,1.048979,-2.174486,-0.802585,-1.241601,-2.447436,-0.304584,0.241056,30.206251,30.450001,-0.000000,43.065,40.239,-93.924,,walk
2025-10-18T17:50:35.532890,58802,384,-1.539482,-4.299902,0.821037,-0.207570,-2.005692,1.048979,-1.331913,-2.294211,-0.227942,-2.447436,-0.304584,0.241056,30.206251,30.450001,-0.000000,8.251,19.375,-79.190,,walk
2025-10-18T17:50:35.583308,58852,385,-1.620838,-3.491726,0.328116,-0.207570,-2.005692,1.048979,-1.413269,-1.486035,-0.720863,-1.377079,-1.107695,-0.136372,30.787500,30.750002,4.087500,11.969,24.804,-84.632,,walk
2025-10-18T17:50:35.633233,58902,386,-1.998007,-8.621041,-6.296414,-0.207570,-2.005692,1.048979,-1.790437,-6.615350,-7.345393,-1.377079,-1.107695,-0.136372,30.787500,30.750002,4.087500,32.114,10.601,-126.143,,walk
2025-10-18T17:50:35.684217,58953,387,-1.812264,-27.873392,-12.394223,-0.207570,-2.005692,1.048979,-1.604695,-25.867701,-13.443202,-1.377079,-1.107695,-0.136372,30.787500,30.750002,4.087500,18.616,3.400,-113.973,,walk
2025-10-18T17:50:35.733689,59003,388,-3.658327,-0.222533,-5.968597,0.288415,-1.550414,4.762352,-3.946742,1.327882,-10.730949,-1.377079,-1.107695,-0.136372,30.787500,30.750002,4.087500,47.699,31.488,-177.865,,walk
2025-10-18T17:50:35.782872,59052,389,-0.084945,-13.335200,2.065006,0.288415,-1.550414,4.762352,-0.373360,-11.784786,-2.697346,0.641771,-0.164318,-0.379794,31.218752,31.256250,6.825000,-19.928,0.361,-81.197,,walk
2025-10-18T17:50:35.833213,59102,390,1.192224,-20.343779,-5.205885,0.288415,-1.550414,4.762352,0.903809,-18.793365,-9.968237,0.641771,-0.164318,-0.379794,31.218752,31.256250,6.825000,-1.055,-3.249,-104.354,,walk
2025-10-18T17:50:35.883280,59152,391,-5.636892,0.560220,6.450751,-1.401614,-0.066411,-1.692984,-4.235278,0.626631,8.143735,0.641771,-0.164318,-0.379794,31.218752,31.256250,6.825000,-49.197,41.041,4.963,,walk
2025-10-18T17:50:35.932809,59202,392,2.960221,-15.546168,1.313061,-1.401614,-0.066411,-1.692984,4.361834,-15.479757,3.006046,0.641771,-0.164318,-0.379794,31.218752,31.256250,6.825000,-27.203,-10.744,-85.172,,walk
2025-10-18T17:50:35.983306,59252,393,2.957828,-14.442479,-0.156730,-1.401614,-0.066411,-1.692984,4.359441,-14.376068,1.536254,0.925892,0.530674,-0.039934,31.387501,31.350000,6.506250,-22.722,-11.573,-90.622,,walk
2025-10-18T17:50:36.033294,59302,394,-0.748056,-9.493823,1.886442,-1.401614,-0.066411,-1.692984,0.653557,-9.427412,3.579426,0.925892,0.530674,-0.039934,31.387501,31.350000,6.506250,-17.623,4.419,-78.762,,walk
2025-10-18T17:50:36.083661,59353,395,-0.567398,-8.103892,1.066601,-1.401614,-0.066411,-1.692984,0.834216,-8.037481,2.759585,0.925892,0.530674,-0.039934,31.387501,31.350000,6.506250,-14.764,3.971,-82.502,,walk
2025-10-18T17:50:36.133729,59403,396,0.476471,-8.752945,-0.123230,-1.769560,1.422704,1.167665,2.246031,-10.175649,-1.290895,0.925892,0.530674,-0.039934,31.387501,31.350000,6.506250,-14.060,-3.116,-90.807,,walk
2025-10-18T17:50:36.182865,59452,397,-0.118445,-7.511369,-0.399900,-1.769560,1.422704,1.167665,1.651115,-8.934073,-1.567566,1.535594,0.503567,-0.282517,31.368752,31.237501,5.156250,-5.440,0.902,-93.048,,walk
2025-10-18T17:50:36.233722,59503,398,-0.932603,-10.359127,-2.063810,-1.769560,1.422704,1.167665,0.836957,-11.781831,-3.231475,1.535594,0.503567,-0.282517,31.368752,31.237501,5.156250,6.785,5.046,-101.267,,walk
2025-10-18T17:50:36.283318,59552,399,2.182254,-12.199208,-0.017946,0.069261,-0.863399,-0.236189,2.112993,-11.335810,0.218243,1.535594,0.503567,-0.282517,31.368752,31.237501,5.156250,-19.398,-10.142,-90.084,,walk
2025-10-18T17:50:36.334022,59603,400,2.959024,-13.257434,1.748854,0.069261,-0.863399,-0.236189,2.889763,-12.394035,1.985043,1.535594,0.503567,-0.282517,31.368752,31.237501,5.156250,-28.155,-12.477,-82.485,,walk
2025-10-18T17:50:36.383675,59653,401,-1.464108,-12.039786,-2.088934,0.069261,-0.863399,-0.236189,-1.533370,-11.176388,-1.852745,0.539302,0.414613,-0.037033,31.218752,30.975000,2.831250,11.165,6.832,-99.843,,walk
2025-10-18T17:50:36.433242,59702,402,2.431108,-12.111870,0.976870,0.069261,-0.863399,-0.236189,2.361847,-11.248471,1.213059,0.539302,0.414613,-0.037033,31.218752,30.975000,2.831250,-20.708,-11.314,-85.389,,walk
2025-10-18T17:50:36.483269,59752,403,-3.848556,-6.697511,0.037089,0.069261,-0.863399,-0.236189,-3.917817,-5.834112,0.273278,0.539302,0.414613,-0.037033,31.218752,30.975000,2.831250,24.415,29.882,-89.683,,walk
2025-10-18T17:50:36.533250,59802,404,-3.287140,-13.174582,3.033202,0.170967,-0.364192,-3.235033,-3.458107,-12.810390,6.268234,0.539302,0.414613,-0.037033,31.218752,30.975000,2.831250,-4.505,13.666,-77.035,,walk
2025-10-18T17:50:36.582834,59852,405,3.332604,-14.525032,-1.229313,0.170967,-0.364192,-3.235033,3.161637,-14.160840,2.005720,-2.447512,-0.100103,0.305042,31.143751,30.956251,2.868750,-13.421,-12.878,-94.838,,walk
2025-10-18T17:50:36.633906,59903,406,1.884049,-10.632208,0.825823,0.170967,-0.364192,-3.235033,1.713082,-10.268016,4.060855,-2.447512,-0.100103,0.305042,31.143751,30.956251,2.868750,-19.385,-10.019,-85.559,,walk
2025-10-18T17:50:36.682862,59952,407,-3.125625,-3.559922,-0.098106,-0.059130,-1.482382,0.790804,-3.066495,-2.077540,-0.888910,-2.447512,-0.100103,0.305042,31.143751,30.956251,2.868750,37.243,41.272,-91.579,,walk
2025-10-18T17:50:36.733284,60002,408,-2.619243,-3.945465,-0.754038,-0.059130,-1.482382,0.790804,-2.560113,-2.463084,-1.544842,-2.447512,-0.100103,0.305042,31.143751,30.956251,2.868750,36.091,33.107,-100.820,,walk
2025-10-18T17:50:36.783632,60052,409,-1.370489,-5.608178,-0.343669,-0.059130,-1.482382,0.790804,-1.311359,-4.125796,-1.134473,-1.365549,-1.149996,-0.153323,31.256250,31.237501,6.056250,6.157,13.708,-93.507,,walk
2025-10-18T17:50:36.833436,60102,410,-1.873281,-6.844669,-3.683451,-0.059130,-1.482382,0.790804,-1.814151,-5.362288,-4.474255,-1.365549,-1.149996,-0.153323,31.256250,31.237501,6.056250,26.802,13.550,-118.287,,walk
2025-10-18T17:50:36.883911,60153,411,-2.817848,-14.036596,-8.770891,-0.059130,-1.482382,0.790804,-2.758718,-12.554214,-9.561695,-1.365549,-1.149996,-0.153323,31.256250,31.237501,6.056250,26.600,9.662,-122.000,,walk
2025-10-18T17:50:36.933277,60202,412,0.314955,-12.911372,-8.671290,0.471538,-1.839030,4.529733,-0.156583,-11.072342,-13.201024,-1.365549,-1.149996,-0.153323,31.256250,31.237501,6.056250,20.864,-1.160,-123.885,,walk
2025-10-18T17:50:36.983391,60252,413,-1.409073,-4.966602,-5.840282,0.471538,-1.839030,4.529733,-1.880612,-3.127572,-10.370015,1.022329,0.050395,-0.375442,31.368752,31.537500,7.368750,35.555,10.414,-139.622,,walk
2025-10-18T17:50:37.033791,60303,414,-2.042274,-18.227327,-0.080160,0.471538,-1.839030,4.529733,-2.513813,-16.388297,-4.609893,1.022329,0.050395,-0.375442,31.368752,31.537500,7.368750,-6.582,6.393,-90.252,,walk
2025-10-18T17:50:37.083291,60352,415,0.159123,-3.334996,2.785545,-1.695404,1.533676,-1.374158,1.854527,-4.868672,4.159703,1.022329,0.050395,-0.375442,31.368752,31.537500,7.368750,-40.720,-2.097,-50.130,,walk
2025-10-18T17:50:37.133551,60402,416,-2.936292,-2.042274,3.211766,-1.695404,1.533676,-1.374158,-1.240888,-3.575950,4.585925,1.022329,0.050395,-0.375442,31.368752,31.537500,7.368750,-33.560,37.649,-32.451,,walk
2025-10-18T17:50:37.182874,60452,417,2.902793,-16.664215,-0.799502,-1.695404,1.533676,-1.374158,4.598197,-18.197891,0.574656,0.282746,0.200282,-0.285724,31.125002,31.912500,5.943750,-18.029,-9.870,-92.747,,walk
2025-10-18T17:50:37.234241,60503,418,-0.147159,-10.338788,-0.023928,-1.695404,1.533676,-1.374158,1.548246,-11.872464,1.350230,0.282746,0.200282,-0.285724,31.125002,31.912500,5.943750,-9.864,0.815,-90.133,,walk
2025-10-18T17:50:37.283347,60552,419,0.135194,-9.993026,1.525125,-1.695404,1.533676,-1.374158,1.830599,-11.526701,2.899284,0.282746,0.200282,-0.285724,31.125002,31.912500,5.943750,-19.678,-0.766,-81.323,,walk
2025-10-18T17:50:37.332855,60602,420,0.080160,-8.970692,-0.872782,-0.835881,-1.037861,-0.740099,0.916041,-7.932831,-0.132683,0.282746,0.200282,-0.285724,31.125002,31.912500,5.943750,-5.699,-0.510,-95.557,,walk
2025-10-18T17:50:37.383115,60652,421,-0.010768,-9.163314,0.721735,-0.835881,-1.037861,-0.740099,0.825114,-8.125453,1.461834,1.230170,0.719196,0.021685,30.806252,31.912500,4.950000,-13.513,0.067,-85.496,,walk
2025-10-18T17:50:37.432816,60702,422,0.077767,-7.135696,0.646361,-0.835881,-1.037861,-0.740099,0.913648,-6.097836,1.386460,1.230170,0.719196,0.021685,30.806252,31.912500,4.950000,-14.829,-0.622,-84.824,,walk
2025-10-18T17:50:37.482988,60752,423,0.888335,-10.532907,-0.984048,-0.502795,0.131251,0.964971,1.391130,-10.664158,-1.949020,1.230170,0.719196,0.021685,30.806252,31.912500,4.950000,-8.469,-4.800,-95.337,,walk
2025-10-18T17:50:37.533317,60802,424,2.135594,-11.862718,-0.969691,-0.502795,0.131251,0.964971,2.638389,-11.993969,-1.934663,1.230170,0.719196,0.021685,30.806252,31.912500,4.950000,-14.615,-10.172,-94.673,,walk
2025-10-18T17:50:37.582817,60852,425,1.971686,-13.052548,0.292223,-0.502795,0.131251,0.964971,2.474480,-13.183800,-0.672748,1.061729,0.252204,0.091856,30.543751,31.781252,2.981250,-15.440,-8.588,-88.717,,walk
2025-10-18T17:50:37.633265,60902,426,-0.562612,-11.599507,-1.924727,-0.502795,0.131251,0.964971,-0.059818,-11.730759,-2.889698,1.061729,0.252204,0.091856,30.543751,31.781252,2.981250,6.892,2.739,-99.421,,walk
2025-10-18T17:50:37.683276,60952,427,2.756831,-13.756637,0.371187,-0.502795,0.131251,0.964971,3.259625,-13.887888,-0.593785,1.061729,0.252204,0.091856,30.543751,31.781252,2.981250,-18.416,-11.328,-88.454,,walk
2025-10-18T17:50:37.732819,61002,428,-1.606481,-7.025626,-0.809073,0.086725,0.608086,-2.250727,-1.693206,-7.633712,1.441654,1.061729,0.252204,0.091856,30.543751,31.781252,2.981250,13.784,12.798,-96.569,,walk
2025-10-18T17:50:37.783306,61052,429,-4.809873,-9.349057,2.065006,0.086725,0.608086,-2.250727,-4.896597,-9.957143,4.315733,-1.188098,0.085671,-0.145992,30.393751,31.556252,1.987500,9.675,26.673,-77.545,,walk
2025-10-18T17:50:37.833299,61102,430,0.742074,-14.414962,-3.027220,0.086725,0.608086,-2.250727,0.655350,-15.023047,-0.776492,-1.188098,0.085671,-0.145992,30.393751,31.556252,1.987500,5.749,-2.884,-101.860,,walk
2025-10-18T17:50:37.883455,61152,431,2.123630,-15.069698,-1.354936,0.086725,0.608086,-2.250727,2.036905,-15.677784,0.895792,-1.188098,0.085671,-0.145992,30.393751,31.556252,1.987500,-6.394,-7.990,-95.138,,walk
2025-10-18T17:50:37.933256,61202,432,-0.848854,-6.217451,-0.264407,1.006444,-2.836303,-2.034534,-1.855298,-3.381148,1.770128,-1.188098,0.085671,-0.145992,30.393751,31.556252,1.987500,6.529,7.767,-92.435,,walk
2025-10-18T17:50:37.982879,61252,433,-2.181058,-3.094518,-1.125225,1.006444,-2.836303,-2.034534,-3.187502,-0.258215,0.909310,-2.581364,-1.362418,0.198067,30.393751,31.987501,4.537500,39.739,33.520,-109.982,,walk
2025-10-18T17:50:38.033283,61302,434,-1.080958,-4.486542,-0.238086,1.006444,-2.836303,-2.034534,-2.087401,-1.650239,1.796449,-2.581364,-1.362418,0.198067,30.393751,31.987501,4.537500,8.160,13.528,-93.038,,walk
2025-10-18T17:50:38.083267,61352,435,-1.700998,-3.872484,-1.398007,1.006444,-2.836303,-2.034534,-2.707442,-1.036182,0.636528,-2.581364,-1.362418,0.198067,30.393751,31.987501,4.537500,30.878,22.448,-109.850,,walk
2025-10-18T17:50:38.132841,61402,436,-2.785545,-14.387444,-7.284051,-0.677537,-2.651460,3.730189,-2.108007,-11.735985,-11.014240,-2.581364,-1.362418,0.198067,30.393751,31.987501,4.537500,26.136,9.800,-116.852,,walk
2025-10-18T17:50:38.183258,61452,437,-0.203390,-24.453451,-12.730714,-0.677537,-2.651460,3.730189,0.474147,-21.801991,-16.460902,1.580491,0.266024,-0.051235,30.525002,32.512501,6.637500,16.964,0.423,-117.502,,walk
2025-10-18T17:50:38.232770,61502,438,-4.420740,-0.984048,-4.854140,-0.677537,-2.651460,3.730189,-3.743202,1.667411,-8.584328,1.580491,0.266024,-0.051235,30.525002,32.512501,6.637500,52.090,41.751,-168.540,,walk
2025-10-18T17:50:38.282638,61551,439,3.591029,-14.527425,1.186242,-0.677537,-2.651460,3.730189,4.268566,-11.875965,-2.543947,1.580491,0.266024,-0.051235,30.525002,32.512501,6.637500,-30.232,-13.840,-85.332,,walk
2025-10-18T17:50:38.333256,61602,440,-0.793520,-7.212266,1.375275,-1.125140,4.748795,2.430651,0.331621,-11.961061,-1.055376,1.580491,0.266024,-0.051235,30.525002,32.512501,6.637500,-16.753,6.168,-79.204,,walk
2025-10-18T17:50:38.382819,61652,441,-7.935198,-2.222932,-1.243670,-1.125140,4.748795,2.430651,-6.810058,-6.971727,-3.674321,-0.328789,0.224868,-0.580992,30.487501,32.831253,5.943750,69.367,72.203,-119.226,,walk
2025-10-18T17:50:38.433282,61702,442,4.266403,-13.649857,0.396311,-1.125140,4.748795,2.430651,5.391543,-18.398652,-2.034340,-0.328789,0.224868,-0.580992,30.487501,32.831253,5.943750,-29.896,-17.350,-88.337,,walk
2025-10-18T17:50:38.482665,61752,443,2.488536,-10.907383,0.419043,-1.125140,4.748795,2.430651,3.613676,-15.656178,-2.011608,-0.328789,0.224868,-0.580992,30.487501,32.831253,5.943750,-25.950,-12.843,-87.800,,walk
2025-10-18T17:50:38.533351,61802,444,-0.206979,-10.004990,-0.525524,-0.333750,-4.300998,-2.951506,0.126770,-5.703992,2.425982,-0.328789,0.224868,-0.580992,30.487501,32.831253,5.943750,-6.678,1.184,-93.007,,walk
2025-10-18T17:50:38.583285,61852,445,-0.359223,-8.236993,0.447757,-0.333750,-4.300998,-2.951506,-0.025473,-3.935995,3.399263,1.426863,0.614360,0.385674,30.431252,32.737503,5.062500,-10.192,2.493,-86.889,,walk
2025-10-18T17:50:38.632881,61902,446,0.287438,-9.123833,0.575773,-0.333750,-4.300998,-2.951506,0.621187,-4.822835,3.527279,1.426863,0.614360,0.385674,30.431252,32.737503,5.062500,-14.927,-1.801,-86.389,,walk
2025-10-18T17:50:38.683295,61952,447,-0.165105,-9.268898,-1.500001,-0.333750,-4.300998,-2.951506,0.168645,-4.967900,1.451505,1.426863,0.614360,0.385674,30.431252,32.737503,5.062500,1.429,1.007,-99.193,,walk
2025-10-18T17:50:38.733271,62002,448,0.074178,-10.441978,-0.694218,-0.984488,1.323599,1.734212,1.058665,-11.765577,-2.428430,1.426863,0.614360,0.385674,30.431252,32.737503,5.062500,-5.814,-0.406,-93.804,,walk
2025-10-18T17:50:38.783240,62052,449,2.827419,-11.649756,-0.602094,-0.984488,1.323599,1.734212,3.811907,-12.973355,-2.336306,0.987206,0.286487,-0.078112,30.337502,32.493752,3.356250,-16.899,-13.625,-92.959,,walk
2025-10-18T17:50:38.832852,62102,450,0.956531,-11.850753,1.832603,-0.984488,1.323599,1.734212,1.941019,-13.174352,0.098391,0.987206,0.286487,-0.078112,30.337502,32.493752,3.356250,-19.570,-4.561,-81.209,,walk
2025-10-18T17:50:38.883061,62152,451,-2.267200,-10.506585,-1.873281,-0.984488,1.323599,1.734212,-1.282712,-11.830184,-3.607493,0.987206,0.286487,-0.078112,30.337502,32.493752,3.356250,15.945,11.994,-100.109,,walk
2025-10-18T17:50:38.933062,62202,452,3.002095,-13.741981,1.371686,-0.474703,0.344242,-2.354703,3.476798,-14.086223,3.726389,0.987206,0.286487,-0.078112,30.337502,32.493752,3.356250,-24.036,-12.264,-84.300,,walk
2025-10-18T17:50:38.982999,62252,453,-2.954239,-8.102695,-0.828216,-0.474703,0.344242,-2.354703,-2.479536,-8.446938,1.526488,-0.728054,0.369639,-0.245332,30.375002,32.343750,1.987500,21.870,19.936,-95.836,,walk
2025-10-18T17:50:39.032825,62302,454,-3.888038,-12.009876,2.110470,-0.474703,0.344242,-2.354703,-3.413335,-12.354118,4.465173,-0.728054,0.369639,-0.245332,30.375002,32.343750,1.987500,3.149,17.685,-80.033,,walk
2025-10-18T17:50:39.083699,62353,455,-0.147159,-13.755440,-1.510768,-0.474703,0.344242,-2.354703,0.327544,-14.099682,0.843935,-0.728054,0.369639,-0.245332,30.375002,32.343750,1.987500,3.533,0.609,-96.268,,walk
2025-10-18T17:50:39.133532,62402,456,2.117648,-12.361920,-0.291027,0.181966,-1.665795,-1.890663,1.935682,-10.696125,1.599636,-0.728054,0.369639,-0.245332,30.375002,32.343750,1.987500,-12.057,-9.718,-91.349,,walk
2025-10-18T17:50:39.182811,62452,457,0.770788,-9.047262,-0.217747,0.181966,-1.665795,-1.890663,0.588822,-7.381467,1.672917,-0.728054,0.369639,-0.245332,30.375002,32.343750,1.987500,-7.156,-4.868,-91.379,,walk
2025-10-18T17:50:39.232962,62502,458,0.770788,-9.047262,-0.217747,0.181966,-1.665795,-1.890663,0.588822,-7.381467,1.672917,-0.728054,0.369639,-0.245332,30.375002,32.343750,1.987500,-7.156,-4.868,-91.379,,walk
2025-10-18T17:50:39.282868,62552,459,0.770788,-9.047262,-0.217747,0.181966,-1.665795,-1.890663,0.588822,-7.381467,1.672917,-0.728054,0.369639,-0.245332,30.375002,32.343750,1.987500,-7.156,-4.868,-91.379,,walk
2025-10-18T17:50:39.333449,62602,460,0.770788,-9.047262,-0.217747,0.181966,-1.665795,-1.890663,0.588822,-7.381467,1.672917,-0.728054,0.369639,-0.245332,30.375002,32.343750,1.987500,-7.156,-4.868,-91.379,,walk
2025-10-18T17:50:39.383277,62652,461,0.770788,-9.047262,-0.217747,0.181966,-1.665795,-1.890663,0.588822,-7.381467,1.672917,-0.728054,0.369639,-0.245332,30.375002,32.343750,1.987500,-7.156,-4.868,-91.379,,walk
2025-10-18T17:50:39.432895,62702,462,0.770788,-9.047262,-0.217747,0.181966,-1.665795,-1.890663,0.588822,-7.381467,1.672917,-0.728054,0.369639,-0.245332,30.375002,32.343750,1.987500,-7.156,-4.868,-91.379,,walk
2025-10-18T17:50:39.482865,62752,463,0.770788,-9.047262,-0.217747,0.181966,-1.665795,-1.890663,0.588822,-7.381467,1.672917,-0.728054,0.369639,-0.245332,30.375002,32.343750,1.987500,-7.156,-4.868,-91.379,,walk
2025-10-18T17:50:39.532876,62802,464,0.770788,-9.047262,-0.217747,0.181966,-1.665795,-1.890663,0.588822,-7.381467,1.672917,-0.728054,0.369639,-0.245332,30.375002,32.343750,1.987500,-7.156,-4.868,-91.379,,walk
2025-10-18T17:50:39.583288,62852,465,0.770788,-9.047262,-0.217747,0.181966,-1.665795,-1.890663,0.588822,-7.381467,1.672917,-0.728054,0.369639,-0.245332,30.375002,32.343750,1.987500,-7.156,-4.868,-91.379,,walk
2025-10-18T17:50:39.632873,62902,466,0.770788,-9.047262,-0.217747,0.181966,-1.665795,-1.890663,0.588822,-7.381467,1.672917,-0.728054,0.369639,-0.245332,30.375002,32.343750,1.987500,-7.156,-4.868,-91.379,,walk
2025-10-18T17:50:39.682873,62952,467,0.770788,-9.047262,-0.217747,0.181966,-1.665795,-1.890663,0.588822,-7.381467,1.672917,-0.728054,0.369639,-0.245332,30.375002,32.343750,1.987500,-7.156,-4.868,-91.379,,walk
2025-10-18T17:50:39.733347,63002,468,0.770788,-9.047262,-0.217747,0.181966,-1.665795,-1.890663,0.588822,-7.381467,1.672917,-0.728054,0.369639,-0.245332,30.375002,32.343750,1.987500,-7.156,-4.868,-91.379,,walk
2025-10-18T17:50:39.782868,63052,469,0.770788,-9.047262,-0.217747,0.181966,-1.665795,-1.890663,0.588822,-7.381467,1.672917,-0.728054,0.369639,-0.245332,30.375002,32.343750,1.987500,-7.156,-4.868,-91.379,,walk
2025-10-18T17:50:39.833299,63102,470,0.770788,-9.047262,-0.217747,0.181966,-1.665795,-1.890663,0.588822,-7.381467,1.672917,-0.728054,0.369639,-0.245332,30.375002,32.343750,1.987500,-7.156,-4.868,-91.379,,walk
2025-10-18T17:50:39.882862,63152,471,0.770788,-9.047262,-0.217747,0.181966,-1.665795,-1.890663,0.588822,-7.381467,1.672917,-0.728054,0.369639,-0.245332,30.375002,32.343750,1.987500,-7.156,-4.868,-91.379,,walk
2025-10-18T17:50:39.933925,63203,472,0.770788,-9.047262,-0.217747,0.181966,-1.665795,-1.890663,0.588822,-7.381467,1.672917,-0.728054,0.369639,-0.245332,30.375002,32.343750,1.987500,-7.156,-4.868,-91.379,,walk
2025-10-18T17:50:39.983089,63252,473,0.770788,-9.047262,-0.217747,0.181966,-1.665795,-1.890663,0.588822,-7.381467,1.672917,-0.728054,0.369639,-0.245332,30.375002,32.343750,1.987500,-7.156,-4.868,-91.379,,walk
2025-10-18T17:50:40.033312,63302,474,0.770788,-9.047262,-0.217747,0.181966,-1.665795,-1.890663,0.588822,-7.381467,1.672917,-0.728054,0.369639,-0.245332,30.375002,32.343750,1.987500,-7.156,-4.868,-91.379,,walk
2025-10-18T17:50:40.082882,63352,475,0.770788,-9.047262,-0.217747,0.181966,-1.665795,-1.890663,0.588822,-7.381467,1.672917,-0.728054,0.369639,-0.245332,30.375002,32.343750,1.987500,-7.156,-4.868,-91.379,,walk
2025-10-18T17:52:04.287445,147556,476,0.770788,-9.047262,-0.217747,0.181966,-1.665795,-1.890663,0.588822,-7.381467,1.672917,-0.728054,0.369639,-0.245332,30.375002,32.343750,1.987500,-7.156,-4.868,-91.379,,walk
2025-10-18T17:52:04.296852,147566,477,0.770788,-9.047262,-0.217747,0.181966,-1.665795,-1.890663,0.588822,-7.381467,1.672917,-0.728054,0.369639,-0.245332,30.375002,32.343750,1.987500,-7.156,-4.868,-91.379,,walk
2025-10-18T17:52:04.346868,147616,478,0.770788,-9.047262,-0.217747,0.181966,-1.665795,-1.890663,0.588822,-7.381467,1.672917,-0.728054,0.369639,-0.245332,30.375002,32.343750,1.987500,-7.156,-4.868,-91.379,,walk
2025-10-18T17:52:04.396904,147666,479,0.770788,-9.047262,-0.217747,0.181966,-1.665795,-1.890663,0.588822,-7.381467,1.672917,-0.728054,0.369639,-0.245332,30.375002,32.343750,1.987500,-7.156,-4.868,-91.379,,walk
2025-10-18T17:52:04.446784,147716,480,0.770788,-9.047262,-0.217747,0.181966,-1.665795,-1.890663,0.588822,-7.381467,1.672917,-0.728054,0.369639,-0.245332,30.375002,32.343750,1.987500,-7.156,-4.868,-91.379,,walk
2025-10-18T17:52:04.498039,147767,481,0.770788,-9.047262,-0.217747,0.181966,-1.665795,-1.890663,0.588822,-7.381467,1.672917,-0.728054,0.369639,-0.245332,30.375002,32.343750,1.987500,-7.156,-4.868,-91.379,,walk
2025-10-18T17:52:04.547794,147817,482,0.770788,-9.047262,-0.217747,0.181966,-1.665795,-1.890663,0.588822,-7.381467,1.672917,-0.728054,0.369639,-0.245332,30.375002,32.343750,1.987500,-7.156,-4.868,-91.379,,walk
2025-10-18T17:52:04.596941,147866,483,0.770788,-9.047262,-0.217747,0.181966,-1.665795,-1.890663,0.588822,-7.381467,1.672917,-0.728054,0.369639,-0.245332,30.375002,32.343750,1.987500,-7.156,-4.868,-91.379,,walk
2025-10-18T17:52:04.646979,147916,484,0.770788,-9.047262,-0.217747,0.181966,-1.665795,-1.890663,0.588822,-7.381467,1.672917,-0.728054,0.369639,-0.245332,30.375002,32.343750,1.987500,-7.156,-4.868,-91.379,,walk
2025-10-18T17:52:04.696832,147966,485,0.770788,-9.047262,-0.217747,0.181966,-1.665795,-1.890663,0.588822,-7.381467,1.672917,-0.728054,0.369639,-0.245332,30.375002,32.343750,1.987500,-7.156,-4.868,-91.379,,walk
2025-10-18T17:52:04.746751,148016,486,0.770788,-9.047262,-0.217747,0.181966,-1.665795,-1.890663,0.588822,-7.381467,1.672917,-0.728054,0.369639,-0.245332,30.375002,32.343750,1.987500,-7.156,-4.868,-91.379,,walk
2025-10-18T17:52:04.796769,148066,487,0.770788,-9.047262,-0.217747,0.181966,-1.665795,-1.890663,0.588822,-7.381467,1.672917,-0.728054,0.369639,-0.245332,30.375002,32.343750,1.987500,-7.156,-4.868,-91.379,,walk
2025-10-18T17:52:04.846920,148116,488,0.770788,-9.047262,-0.217747,0.181966,-1.665795,-1.890663,0.588822,-7.381467,1.672917,-0.728054,0.369639,-0.245332,30.375002,32.343750,1.987500,-7.156,-4.868,-91.379,,walk
2025-10-18T17:52:04.896870,148166,489,0.770788,-9.047262,-0.217747,0.181966,-1.665795,-1.890663,0.588822,-7.381467,1.672917,-0.728054,0.369639,-0.245332,30.375002,32.343750,1.987500,-7.156,-4.868,-91.379,,walk
2025-10-18T17:52:04.946775,148216,490,0.770788,-9.047262,-0.217747,0.181966,-1.665795,-1.890663,0.588822,-7.381467,1.672917,-0.728054,0.369639,-0.245332,30.375002,32.343750,1.987500,-7.156,-4.868,-91.379,,walk
2025-10-18T17:52:04.996963,148266,491,0.770788,-9.047262,-0.217747,0.181966,-1.665795,-1.890663,0.588822,-7.381467,1.672917,-0.728054,0.369639,-0.245332,30.375002,32.343750,1.987500,-7.156,-4.868,-91.379,,walk
2025-10-18T17:52:05.120259,148389,492,0.770788,-9.047262,-0.217747,0.181966,-1.665795,-1.890663,0.588822,-7.381467,1.672917,-0.728054,0.369639,-0.245332,30.375002,32.343750,1.987500,-7.156,-4.868,-91.379,,walk
2025-10-18T17:52:05.169314,148438,493,0.600898,4.175177,7.087840,0.181966,-1.665795,-1.890663,0.418931,5.840972,8.978503,0.098728,-0.153628,-0.369257,30.375002,32.343750,1.987500,-40.488,-4.178,30.501,,walk
2025-10-18T17:52:05.196957,148466,494,0.550648,4.390830,7.419246,0.181966,-1.665795,-1.890663,0.368682,6.056625,9.309909,0.098728,-0.153628,-0.369257,30.375002,32.343750,1.987500,-40.562,-3.655,30.618,,walk
2025-10-18T17:52:05.247690,148517,495,0.581755,4.638487,8.089535,0.181966,-1.665795,-1.890663,0.399789,6.304282,9.980198,0.098728,-0.153628,-0.369257,-8.793751,3.356250,-39.037502,-105.708,-3.570,29.830,,walk
2025-10-18T17:52:05.296853,148566,496,0.344866,4.919942,8.516953,0.181966,-1.665795,-1.890663,0.162899,6.585738,10.407617,0.098728,-0.153628,-0.369257,-8.793751,3.356250,-39.037502,-108.196,-2.008,30.014,,walk
2025-10-18T17:52:05.346819,148616,497,-0.029910,4.374080,11.075180,0.181966,-1.665795,-1.890663,-0.211877,6.039875,12.965843,-0.170350,0.082083,-0.205397,-8.793751,3.356250,-39.037502,-116.997,0.144,21.551,,walk
2025-10-18T17:52:05.396847,148666,498,-0.434596,5.215456,10.565209,0.181966,-1.665795,-1.890663,-0.616563,6.881251,12.455873,-0.170350,0.082083,-0.205397,-8.793751,3.356250,-39.037502,-116.927,2.112,26.273,,walk
2025-10-18T17:52:05.449330,148718,499,-1.329811,4.479364,11.338390,0.181966,-1.665795,-1.890663,-1.511777,6.145159,13.229054,-0.170350,0.082083,-0.205397,-13.181251,-2.343750,-45.412502,-142.402,6.225,21.557,,walk
2025-10-18T17:52:05.496936,148766,500,-1.590928,2.401197,11.702398,0.000000,0.000000,0.000000,-1.590928,2.401197,11.702398,-0.170350,0.082083,-0.205397,-13.181251,-2.343750,-45.412502,-161.433,7.586,11.595,,walk
2025-10-18T17:52:05.547102,148816,501,-1.308276,2.450250,9.156136,0.000000,0.000000,0.000000,-1.308276,2.450250,9.156136,-0.265948,0.210971,0.237085,-13.181251,-2.343750,-45.412502,-155.208,7.859,14.982,,walk
2025-10-18T17:52:05.596693,148866,502,-1.651945,2.504089,8.251349,0.000000,0.000000,0.000000,-1.651945,2.504089,8.251349,-0.265948,0.210971,0.237085,-13.181251,-2.343750,-45.412502,-155.070,10.845,16.882,,walk
2025-10-18T17:52:05.646600,148915,503,-1.235295,2.251646,8.718249,0.000000,0.000000,0.000000,-1.235295,2.251646,8.718249,-0.265948,0.210971,0.237085,-13.950001,-6.750000,-47.475002,-166.808,7.812,14.481,,walk
2025-10-18T17:52:05.696639,148965,504,-0.458525,2.251646,8.679665,-0.316209,0.577822,1.347756,-0.142315,1.673824,7.331908,-0.265948,0.210971,0.237085,-13.950001,-6.750000,-47.475002,-162.386,2.927,14.543,,walk
2025-10-18T17:52:05.746632,149015,505,0.153141,2.900400,7.762915,-0.316209,0.577822,1.347756,0.469350,2.322578,6.415158,0.018096,0.177757,0.549610,-13.950001,-6.750000,-47.475002,-141.544,-1.059,20.487,,walk
2025-10-18T17:52:05.796614,149065,506,0.009571,3.535994,7.805985,-0.316209,0.577822,1.347756,0.325781,2.958171,6.458229,0.018096,0.177757,0.549610,-13.950001,-6.750000,-47.475002,-135.942,-0.064,24.370,,walk
2025-10-18T17:52:05.846626,149115,507,-0.141177,3.879663,8.439186,-0.316209,0.577822,1.347756,0.175033,3.301841,7.091430,0.018096,0.177757,0.549610,-13.856251,-8.118751,-47.793751,-139.402,0.871,24.689,,walk
2025-10-18T17:52:05.896621,149165,508,-0.221336,4.370491,9.619446,-0.950229,-1.273526,0.026557,0.728892,5.644017,9.592889,0.018096,0.177757,0.549610,-13.856251,-8.118751,-47.793751,-140.480,1.200,24.434,,walk
2025-10-18T17:52:05.946648,149216,509,-0.295813,4.549952,10.665708,-0.950229,-1.273526,0.026557,0.654416,5.823478,10.639151,0.084373,-0.049097,0.014126,-13.856251,-8.118751,-47.793751,-143.526,1.461,23.103,,walk
2025-10-18T17:52:05.996613,149265,510,0.216550,4.843372,10.871490,-0.950229,-1.273526,0.026557,1.166779,6.116899,10.844934,0.084373,-0.049097,0.014126,-13.856251,-8.118751,-47.793751,-136.941,-1.042,24.014,,walk
2025-10-18T17:52:06.046580,149315,511,0.616451,5.355735,10.030114,-0.950229,-1.273526,0.026557,1.566679,6.629261,10.003557,0.084373,-0.049097,0.014126,-13.987500,-8.925000,-47.943752,-127.105,-3.103,28.101,,walk
2025-10-18T17:52:06.096642,149366,512,0.654736,3.990929,10.859527,0.213229,-0.342929,-0.761747,0.441508,4.333858,11.621274,0.084373,-0.049097,0.014126,-13.987500,-8.925000,-47.943752,-143.245,-3.239,20.179,,walk
2025-10-18T17:52:06.146586,149415,513,1.078565,2.810669,9.203992,0.213229,-0.342929,-0.761747,0.865336,3.153598,9.965739,0.114534,-0.262817,-0.230060,-13.987500,-8.925000,-47.943752,-145.724,-6.395,16.981,,walk
2025-10-18T17:52:06.197375,149466,514,1.259223,2.840580,7.525726,0.213229,-0.342929,-0.761747,1.045994,3.183509,8.287474,0.114534,-0.262817,-0.230060,-13.987500,-8.925000,-47.943752,-125.016,-8.897,20.679,,walk
2025-10-18T17:52:06.246884,149516,515,0.767199,2.765206,7.663613,0.213229,-0.342929,-0.761747,0.553970,3.108135,8.425360,0.114534,-0.262817,-0.230060,-14.193750,-9.825001,-47.568752,-143.016,-5.379,19.841,,walk
2025-10-18T17:52:06.296890,149566,516,0.401097,2.624029,8.685647,0.120870,0.757197,1.237535,0.280227,1.866832,7.448112,0.114534,-0.262817,-0.230060,-14.193750,-9.825001,-47.568752,-159.486,-2.531,16.810,,walk
2025-10-18T17:52:06.347657,149617,517,0.624826,3.058326,8.146066,0.120870,0.757197,1.237535,0.503956,2.301130,6.908530,-0.014660,-0.237161,-0.521511,-14.193750,-9.825001,-47.568752,-143.912,-4.107,20.578,,walk
2025-10-18T17:52:06.396829,149666,518,0.743271,3.850949,7.176374,0.120870,0.757197,1.237535,0.622401,3.093752,5.938839,-0.014660,-0.237161,-0.521511,-14.193750,-9.825001,-47.568752,-124.359,-5.214,28.219,,walk
2025-10-18T17:52:06.446857,149716,519,0.532702,4.163212,7.729415,0.120870,0.757197,1.237535,0.411832,3.406015,6.491880,-0.014660,-0.237161,-0.521511,-14.287500,-10.762501,-47.137501,-130.731,-3.472,28.308,,walk
2025-10-18T17:52:06.496647,149766,520,0.560220,4.461418,8.441579,0.745473,-1.043953,-0.315426,-0.185254,5.505371,8.757005,-0.014660,-0.237161,-0.521511,-14.287500,-10.762501,-47.137501,-131.802,-3.358,27.857,,walk
2025-10-18T17:52:06.546986,149816,521,0.493221,4.733003,9.645767,0.745473,-1.043953,-0.315426,-0.252253,5.776956,9.961193,-0.101248,-0.071622,-0.374449,-14.287500,-10.762501,-47.137501,-136.809,-2.628,26.136,,walk
2025-10-18T17:52:06.597647,149867,522,0.508774,4.228117,11.413764,0.745473,-1.043953,-0.315426,-0.236699,5.272071,11.729190,-0.101248,-0.071622,-0.374449,-14.287500,-10.762501,-47.137501,-152.249,-2.394,20.327,,walk
2025-10-18T17:52:06.647632,149916,523,0.013161,4.496114,10.947164,0.745473,-1.043953,-0.315426,-0.732313,5.540067,11.262589,-0.101248,-0.071622,-0.374449,-14.231251,-11.137501,-46.818752,-152.153,-0.064,22.328,,walk
2025-10-18T17:52:06.696935,149966,524,-1.155135,2.695814,12.201601,0.448322,-0.157333,-1.099224,-1.603457,2.853147,13.300825,-0.101248,-0.071622,-0.374449,-14.231251,-11.137501,-46.818752,176.593,5.281,12.459,,walk
2025-10-18T17:52:06.746734,150016,525,-1.360918,1.790729,11.688042,0.448322,-0.157333,-1.099224,-1.809240,1.948061,12.787265,-0.355971,0.092085,-0.004963,-14.231251,-11.137501,-46.818752,167.807,6.566,8.711,,walk
2025-10-18T17:52:06.796691,150066,526,-1.795514,2.433501,8.268100,0.448322,-0.157333,-1.099224,-2.243836,2.590833,9.367323,-0.355971,0.092085,-0.004963,-14.231251,-11.137501,-46.818752,-176.497,11.768,16.400,,walk
2025-10-18T17:52:06.846755,150116,527,-1.827817,2.490928,7.530512,0.448322,-0.157333,-1.099224,-2.276139,2.648261,8.629735,-0.355971,0.092085,-0.004963,-14.043751,-11.100000,-46.631252,-173.525,12.977,18.303,,walk
2025-10-18T17:52:06.896806,150166,528,-1.035494,2.346163,7.877770,0.297689,1.099689,1.001078,-1.333183,1.246474,6.876693,-0.355971,0.092085,-0.004963,-14.043751,-11.100000,-46.631252,-174.031,7.180,16.585,,walk
2025-10-18T17:52:06.946641,150216,529,-0.167498,2.490928,8.718249,0.297689,1.099689,1.001078,-0.465187,1.391240,7.717172,0.101782,0.092467,0.427059,-14.043751,-11.100000,-46.631252,-172.114,1.058,15.945,,walk
2025-10-18T17:52:06.996738,150266,530,0.094516,2.935096,8.655737,0.297689,1.099689,1.001078,-0.203173,1.835407,7.654659,0.101782,0.092467,0.427059,-14.043751,-11.100000,-46.631252,-161.610,-0.592,18.731,,walk
2025-10-18T17:52:07.046823,150316,531,-0.118445,3.581457,8.366205,0.297689,1.099689,1.001078,-0.416134,2.481769,7.365128,0.101782,0.092467,0.427059,-13.875001,-10.931251,-46.331253,-150.737,0.746,23.175,,walk
2025-10-18T17:52:07.097082,150366,532,-0.156730,3.882056,8.402098,-1.401368,-1.083803,0.332734,1.244638,4.965858,8.069364,0.101782,0.092467,0.427059,-13.875001,-10.931251,-46.331253,-147.305,0.970,24.799,,walk
2025-10-18T17:52:07.146772,150416,533,-0.022732,4.144070,8.748159,-1.401368,-1.083803,0.332734,1.378636,5.227872,8.415425,0.010003,-0.011148,0.183025,-13.875001,-10.931251,-46.331253,-144.589,0.135,25.347,,walk
2025-10-18T17:52:07.196759,150466,534,-0.222533,3.812664,11.132607,-1.401368,-1.083803,0.332734,1.178835,4.896466,10.799873,0.010003,-0.011148,0.183025,-13.875001,-10.931251,-46.331253,-162.741,1.083,18.905,,walk
2025-10-18T17:52:07.246802,150516,535,-0.066999,4.100999,11.536098,-1.401368,-1.083803,0.332734,1.334369,5.184802,11.203363,0.010003,-0.011148,0.183025,-14.118751,-10.893750,-45.731251,-160.716,0.314,19.570,,walk
2025-10-18T17:52:07.296773,150566,536,0.501595,4.148855,11.087144,-0.240541,-0.263595,-0.791059,0.742137,4.412450,11.878203,0.010003,-0.011148,0.183025,-14.118751,-10.893750,-45.731251,-153.682,-2.426,20.516,,walk
2025-10-18T17:52:07.347982,150617,537,0.646361,2.833401,11.450852,-0.240541,-0.263595,-0.791059,0.886903,3.096996,12.241912,0.005421,-0.138891,-0.090711,-14.118751,-10.893750,-45.731251,-177.143,-3.136,13.898,,walk
2025-10-18T17:52:07.396773,150666,538,0.794716,2.177469,8.989835,-0.240541,-0.263595,-0.791059,1.035258,2.441064,9.780894,0.005421,-0.138891,-0.090711,-14.118751,-10.893750,-45.731251,-177.615,-4.911,13.616,,walk
2025-10-18T17:52:07.446701,150716,539,0.770788,2.338984,8.072785,-0.240541,-0.263595,-0.791059,1.011329,2.602579,8.863845,0.005421,-0.138891,-0.090711,-14.700001,-11.100000,-45.018753,-168.258,-5.240,16.158,,walk
2025-10-18T17:52:07.496792,150766,540,0.672682,2.441875,8.363812,-0.288406,0.738604,0.791729,0.961088,1.703271,7.572083,0.005421,-0.138891,-0.090711,-14.700001,-11.100000,-45.018753,-168.675,-4.415,16.276,,walk
2025-10-18T17:52:07.546700,150816,541,0.434596,2.533102,8.734999,-0.288406,0.738604,0.791729,0.723003,1.794498,7.943270,0.172335,-0.117894,-0.304889,-14.700001,-11.100000,-45.018753,-170.672,-2.736,16.172,,walk
2025-10-18T17:52:07.596731,150866,542,0.283849,3.281158,7.907681,-0.288406,0.738604,0.791729,0.572255,2.542554,7.115952,0.172335,-0.117894,-0.304889,-14.700001,-11.100000,-45.018753,-151.463,-1.899,22.535,,walk
2025-10-18T17:52:07.646979,150916,543,0.322134,3.592225,7.811968,-0.288406,0.738604,0.791729,0.610540,2.853621,7.020239,0.172335,-0.117894,-0.304889,-15.150001,-11.362500,-44.325001,-148.013,-2.146,24.695,,walk
2025-10-18T17:52:07.696678,150966,544,0.676271,3.756433,8.242975,0.443925,-1.050754,0.429967,0.232347,4.807187,7.813008,0.172335,-0.117894,-0.304889,-15.150001,-11.362500,-44.325001,-144.386,-4.270,24.499,,walk
2025-10-18T17:52:07.746789,151016,545,0.936192,4.152444,8.685647,0.443925,-1.050754,0.429967,0.492267,5.203198,8.255680,0.004276,0.028710,-0.105142,-15.150001,-11.362500,-44.325001,-138.905,-5.554,25.552,,walk
2025-10-18T17:52:07.796935,151066,546,0.570987,4.415954,9.346664,0.443925,-1.050754,0.429967,0.127062,5.466708,8.916698,0.004276,0.028710,-0.105142,-15.150001,-11.362500,-44.325001,-144.670,-3.162,25.289,,walk
2025-10-18T17:52:07.846934,151116,547,0.594916,4.110570,10.843973,0.443925,-1.050754,0.429967,0.150991,5.161325,10.414006,0.004276,0.028710,-0.105142,-15.337501,-11.306251,-43.800003,-158.268,-2.937,20.760,,walk
2025-10-18T17:52:07.896895,151166,548,0.311366,3.928716,10.943574,0.216263,-0.439099,-0.899679,0.095103,4.367814,11.843253,0.004276,0.028710,-0.105142,-15.337501,-11.306251,-43.800003,-163.139,-1.534,19.748,,walk
2025-10-18T17:52:07.947586,151216,549,-0.306580,2.242075,11.857932,0.216263,-0.439099,-0.899679,-0.522843,2.681173,12.757611,-0.251745,-0.003054,0.038254,-15.337501,-11.306251,-43.800003,169.503,1.455,10.707,,walk
2025-10-18T17:52:07.996855,151266,550,-0.223729,2.246861,8.671290,0.216263,-0.439099,-0.899679,-0.439992,2.685959,9.570970,-0.251745,-0.003054,0.038254,-15.337501,-11.306251,-43.800003,179.798,1.431,14.527,,walk
2025-10-18T17:52:08.046850,151316,551,-0.622433,1.970490,8.342277,0.216263,-0.439099,-0.899679,-0.838696,2.409588,9.241956,-0.251745,-0.003054,0.038254,-15.431251,-10.950001,-43.350002,176.989,4.153,13.290,,walk
2025-10-18T17:52:08.097867,151367,552,-0.823430,1.128814,9.621839,0.452704,0.759733,0.259993,-1.276134,0.369081,9.361846,-0.251745,-0.003054,0.038254,-15.431251,-10.950001,-43.350002,162.530,4.858,6.691,,walk
2025-10-18T17:52:08.147296,151416,553,-0.313759,0.966102,9.978668,0.452704,0.759733,0.259993,-0.766463,0.206369,9.718676,0.000611,-0.017638,0.116748,-15.431251,-10.950001,-43.350002,158.027,1.793,5.530,,walk
2025-10-18T17:52:08.197530,151466,554,0.230907,1.832603,9.028120,0.452704,0.759733,0.259993,-0.221797,1.072870,8.768127,0.000611,-0.017638,0.116748,-15.431251,-10.950001,-43.350002,171.930,-1.436,11.474,,walk
2025-10-18T17:52:08.250339,151519,555,0.167498,2.316252,8.724232,0.452704,0.759733,0.259993,-0.285206,1.556519,8.464239,0.000611,-0.017638,0.116748,-15.543751,-10.443750,-42.956253,-176.116,-1.063,14.869,,walk
2025-10-18T17:52:08.297212,151566,556,-0.071785,2.533102,8.849854,-0.632005,-0.881312,0.653873,0.560220,3.414414,8.195981,0.000611,-0.017638,0.116748,-15.543751,-10.443750,-42.956253,-173.723,0.447,15.973,,walk
2025-10-18T17:52:08.347373,151616,557,-0.220140,2.435894,9.302397,-0.632005,-0.881312,0.653873,0.411865,3.317206,8.648523,0.018249,0.022678,0.060168,-15.543751,-10.443750,-42.956253,-177.625,1.311,14.674,,walk
2025-10-18T17:52:08.396932,151666,558,-0.179462,2.687439,9.646963,-0.632005,-0.881312,0.653873,0.452543,3.568751,8.993090,0.018249,0.022678,0.060168,-15.543751,-10.443750,-42.956253,-175.127,1.027,15.567,,walk
2025-10-18T17:52:08.447368,151716,559,-0.154337,3.040380,9.605089,-0.632005,-0.881312,0.653873,0.477668,3.921692,8.951216,0.018249,0.022678,0.060168,-15.750001,-10.031250,-42.506252,-168.993,0.878,17.565,,walk
2025-10-18T17:52:08.497083,151766,560,-0.318545,3.373282,9.613464,-0.361941,-1.318840,-0.081819,0.043397,4.692122,9.695283,0.018249,0.022678,0.060168,-15.750001,-10.031250,-42.506252,-165.425,1.791,19.336,,walk
2025-10-18T17:52:08.546889,151816,561,-0.267996,3.319443,9.547662,-0.361941,-1.318840,-0.081819,0.093945,4.638284,9.629480,-0.178978,0.025427,0.088496,-15.750001,-10.031250,-42.506252,-165.568,1.519,19.171,,walk
2025-10-18T17:52:08.597753,151867,562,-0.137587,3.218945,9.279665,-0.361941,-1.318840,-0.081819,0.224354,4.537785,9.361484,-0.178978,0.025427,0.088496,-15.750001,-10.031250,-42.506252,-165.000,0.803,19.131,,walk
2025-10-18T17:52:08.647359,151916,563,-0.217747,3.264408,9.257831,-0.361941,-1.318840,-0.081819,0.144194,4.583249,9.339649,-0.178978,0.025427,0.088496,-16.068750,-9.618751,-42.112503,-164.198,1.271,19.423,,walk
2025-10-18T17:52:08.697708,151967,564,-0.318545,3.442674,9.239884,-0.436673,0.048068,-0.010316,0.118129,3.394606,9.250200,-0.178978,0.025427,0.088496,-16.068750,-9.618751,-42.112503,-162.475,1.850,20.435,,walk
2025-10-18T17:52:08.746721,152016,565,-0.407079,3.713362,9.136993,-0.436673,0.048068,-0.010316,0.029594,3.665294,9.147309,-0.125911,-0.038254,0.060932,-16.068750,-9.618751,-42.112503,-159.417,2.364,22.117,,walk
2025-10-18T17:52:08.797066,152066,566,-0.517149,3.837788,9.091530,-0.436673,0.048068,-0.010316,-0.080476,3.789720,9.101846,-0.125911,-0.038254,0.060932,-16.068750,-9.618751,-42.112503,-158.562,3.000,22.886,,walk
2025-10-18T17:52:08.847040,152116,567,-0.587737,3.830610,9.158528,-0.436673,0.048068,-0.010316,-0.151064,3.782542,9.168844,-0.125911,-0.038254,0.060932,-16.331251,-9.131250,-42.056252,-158.494,3.388,22.697,,walk
