timestamp_iso,session_ms,sample_idx,acc_x,acc_y,acc_z,useracc_x,useracc_y,useracc_z,gravity_x,gravity_y,gravity_z,gyro_x,gyro_y,gyro_z,mag_x,mag_y,mag_z,yaw_deg,pitch_deg,roll_deg,pressure_hpa,label
2025-10-25T21:47:14.939680,51,0,-0.232238,2.961627,8.430284,2.185807,0.287042,-0.684482,-2.418044,2.674585,9.114765,-0.258701,0.122326,0.194332,-28.439999,-24.119999,-31.920000,156.991,1.489,19.357,,walk
2025-10-25T21:47:14.989326,101,1,-0.232238,2.961627,8.430284,1.716114,0.979914,-0.974349,-1.948351,1.981713,9.404633,-0.019242,0.021533,0.169286,-29.340000,-22.559999,-34.619999,161.582,1.489,19.357,,walk
2025-10-25T21:47:15.039293,151,2,-0.696713,3.763685,10.386346,1.716114,0.979914,-0.974349,-2.412826,2.783771,11.360695,-0.019242,0.021533,0.169286,-29.340000,-22.559999,-34.619999,162.254,3.609,19.919,,walk
2025-10-25T21:47:15.088805,200,3,-0.696713,3.763685,10.386346,1.716114,0.979914,-0.974349,-2.412826,2.783771,11.360695,-0.019242,0.021533,0.169286,-29.340000,-22.559999,-34.619999,162.254,3.609,19.919,,walk
2025-10-25T21:47:15.138815,250,4,-0.696713,3.763685,10.386346,1.677955,2.422245,0.966587,-2.374667,1.341440,9.419759,0.589180,0.184023,0.156458,-29.340000,-22.559999,-34.619999,162.254,3.609,19.919,,walk
2025-10-25T21:47:15.188813,300,5,-1.010353,1.209072,9.711182,1.677955,2.422245,0.966587,-2.688308,-1.213173,8.744595,0.589180,0.184023,0.156458,-27.059999,-18.480000,-36.959999,155.280,5.895,7.097,,walk
2025-10-25T21:47:15.238802,350,6,-1.010353,1.209072,9.711182,1.677955,2.422245,0.966587,-2.688308,-1.213173,8.744595,0.589180,0.184023,0.156458,-27.059999,-18.480000,-36.959999,155.280,5.895,7.097,,walk
2025-10-25T21:47:15.288802,400,7,-1.010353,1.209072,9.711182,1.677955,2.422245,0.966587,-2.688308,-1.213173,8.744595,0.589180,0.184023,0.156458,-27.059999,-18.480000,-36.959999,155.280,5.895,7.097,,walk
2025-10-25T21:47:15.339357,451,8,-1.010353,1.209072,9.711182,1.701594,-0.391556,0.423895,-2.711947,1.600628,9.287287,-0.905608,0.427758,0.322002,-27.059999,-18.480000,-36.959999,155.280,5.895,7.097,,walk
2025-10-25T21:47:15.388942,500,9,-1.000776,2.585738,8.992921,1.701594,-0.391556,0.423895,-2.702370,2.977294,8.569026,-0.905608,0.427758,0.322002,-25.680000,-16.980000,-38.099998,167.416,6.105,16.042,,walk
2025-10-25T21:47:15.438888,550,10,-1.000776,2.585738,8.992921,1.701594,-0.391556,0.423895,-2.702370,2.977294,8.569026,-0.905608,0.427758,0.322002,-25.680000,-16.980000,-38.099998,167.416,6.105,16.042,,walk
2025-10-25T21:47:15.488872,600,11,-1.000776,2.585738,8.992921,1.701594,-0.391556,0.423895,-2.702370,2.977294,8.569026,-0.905608,0.427758,0.322002,-25.680000,-16.980000,-38.099998,167.416,6.105,16.042,,walk
2025-10-25T21:47:15.540078,651,12,-1.307234,3.263297,9.572318,1.448190,0.899799,-0.352161,-2.755424,2.363498,9.924479,1.103528,-0.377973,0.461280,-25.680000,-16.980000,-38.099998,170.753,7.365,18.825,,walk
2025-10-25T21:47:15.590306,702,13,-1.307234,3.263297,9.572318,1.448190,0.899799,-0.352161,-2.755424,2.363498,9.924479,1.103528,-0.377973,0.461280,-27.719999,-18.299999,-35.939999,167.755,7.365,18.825,,walk
2025-10-25T21:47:15.639627,751,14,-1.307234,3.263297,9.572318,1.448190,0.899799,-0.352161,-2.755424,2.363498,9.924479,1.103528,-0.377973,0.461280,-27.719999,-18.299999,-35.939999,167.755,7.365,18.825,,walk
2025-10-25T21:47:15.689075,800,15,-1.307234,3.263297,9.572318,0.226997,0.292929,0.353130,-1.534231,2.970368,9.219188,-0.220828,-0.690736,-0.660880,-27.719999,-18.299999,-35.939999,167.755,7.365,18.825,,walk
2025-10-25T21:47:15.739079,850,16,-0.184354,2.336741,11.470920,0.226997,0.292929,0.353130,-0.411351,2.043812,11.117789,-0.220828,-0.690736,-0.660880,-27.719999,-18.299999,-35.939999,159.019,0.902,11.514,,walk
2025-10-25T21:47:15.789086,900,17,-0.184354,2.336741,11.470920,0.226997,0.292929,0.353130,-0.411351,2.043812,11.117789,-0.220828,-0.690736,-0.660880,-27.539999,-22.859999,-32.579998,150.323,0.902,11.514,,walk
2025-10-25T21:47:15.839106,950,18,-0.184354,2.336741,11.470920,0.226997,0.292929,0.353130,-0.411351,2.043812,11.117789,-0.220828,-0.690736,-0.660880,-27.539999,-22.859999,-32.579998,150.323,0.902,11.514,,walk
2025-10-25T21:47:15.889364,1001,19,-0.184354,2.336741,11.470920,0.653452,-0.658587,2.170571,-0.837806,2.995327,9.300348,-0.215941,-0.261298,-0.460516,-27.539999,-22.859999,-32.579998,150.323,0.902,11.514,,walk
2025-10-25T21:47:15.939171,1050,20,0.272939,3.344700,7.747936,0.653452,-0.658587,2.170571,-0.380513,4.003286,5.577364,-0.215941,-0.261298,-0.460516,-27.539999,-22.859999,-32.579998,163.724,-1.852,23.349,,walk
2025-10-25T21:47:15.989574,1101,21,0.272939,3.344700,7.747936,0.653452,-0.658587,2.170571,-0.380513,4.003286,5.577364,-0.215941,-0.261298,-0.460516,-29.400000,-24.719999,-30.059999,159.876,-1.852,23.349,,walk
2025-10-25T21:47:16.039837,1151,22,0.272939,3.344700,7.747936,0.653452,-0.658587,2.170571,-0.380513,4.003286,5.577364,-0.215941,-0.261298,-0.460516,-29.400000,-24.719999,-30.059999,159.876,-1.852,23.349,,walk
2025-10-25T21:47:16.089068,1200,23,-0.160412,4.364630,8.370428,1.485645,0.547599,-1.572791,-1.646056,3.817031,9.943219,0.003360,0.432034,-0.181961,-29.400000,-24.719999,-30.059999,164.571,0.974,27.539,,walk
2025-10-25T21:47:16.139093,1250,24,-0.160412,4.364630,8.370428,1.485645,0.547599,-1.572791,-1.646056,3.817031,9.943219,0.003360,0.432034,-0.181961,-29.400000,-24.719999,-30.059999,164.571,0.974,27.539,,walk
2025-10-25T21:47:16.189670,1301,25,-0.160412,4.364630,8.370428,1.485645,0.547599,-1.572791,-1.646056,3.817031,9.943219,0.003360,0.432034,-0.181961,-24.900000,-27.180000,-31.379999,158.945,0.974,27.539,,walk
2025-10-25T21:47:16.240071,1351,26,-0.160412,4.364630,8.370428,1.715241,1.442187,-0.800810,-1.875652,2.922442,9.171238,0.593456,0.277486,0.237092,-24.900000,-27.180000,-31.379999,158.945,0.974,27.539,,walk
2025-10-25T21:47:16.289884,1401,27,-0.866701,4.620809,8.887576,1.715241,1.442187,-0.800810,-2.581942,3.178622,9.688386,0.593456,0.277486,0.237092,-24.900000,-27.180000,-31.379999,158.777,4.945,27.471,,walk
2025-10-25T21:47:16.339264,1450,28,-0.866701,4.620809,8.887576,1.715241,1.442187,-0.800810,-2.581942,3.178622,9.688386,0.593456,0.277486,0.237092,-24.900000,-27.180000,-31.379999,158.777,4.945,27.471,,walk
2025-10-25T21:47:16.389733,1501,29,-0.866701,4.620809,8.887576,1.715241,1.442187,-0.800810,-2.581942,3.178622,9.688386,0.593456,0.277486,0.237092,-25.199999,-26.519999,-31.439999,160.076,4.945,27.471,,walk
2025-10-25T21:47:16.439613,1551,30,-0.866701,4.620809,8.887576,0.473363,1.619151,-0.351723,-1.340064,3.001658,9.239299,0.101709,-0.718836,0.160734,-25.199999,-26.519999,-31.439999,160.076,4.945,27.471,,walk
2025-10-25T21:47:16.490267,1601,31,-0.110133,3.028665,8.480561,0.473363,1.619151,-0.351723,-0.583496,1.409514,8.832284,0.101709,-0.718836,0.160734,-25.199999,-26.519999,-31.439999,150.447,0.701,19.653,,walk
2025-10-25T21:47:16.539168,1650,32,-0.110133,3.028665,8.480561,0.473363,1.619151,-0.351723,-0.583496,1.409514,8.832284,0.101709,-0.718836,0.160734,-25.199999,-26.519999,-31.439999,150.447,0.701,19.653,,walk
2025-10-25T21:47:16.589033,1700,33,-0.110133,3.028665,8.480561,0.993386,0.019830,-0.787639,-1.103519,3.008835,9.268200,-0.156687,0.050244,-0.318184,-27.539999,-26.219999,-29.939999,152.160,0.701,19.653,,walk
2025-10-25T21:47:16.640055,1751,34,-0.768539,3.924097,8.873211,0.993386,0.019830,-0.787639,-1.761925,3.904266,9.660850,-0.156687,0.050244,-0.318184,-27.539999,-26.219999,-29.939999,156.788,4.529,23.857,,walk
2025-10-25T21:47:16.689546,1801,35,-0.768539,3.924097,8.873211,0.993386,0.019830,-0.787639,-1.761925,3.904266,9.660850,-0.156687,0.050244,-0.318184,-27.539999,-26.219999,-29.939999,156.788,4.529,23.857,,walk
2025-10-25T21:47:16.739276,1850,36,-0.768539,3.924097,8.873211,0.993386,0.019830,-0.787639,-1.761925,3.904266,9.660850,-0.156687,0.050244,-0.318184,-27.539999,-26.219999,-29.939999,156.788,4.529,23.857,,walk
2025-10-25T21:47:16.789547,1901,37,-0.768539,3.924097,8.873211,0.311141,0.715156,-0.330449,-1.079680,3.208940,9.203660,0.472504,-1.370018,-0.433638,-26.760000,-27.660000,-30.480000,154.516,4.529,23.857,,walk
2025-10-25T21:47:16.839890,1951,38,0.888249,2.485181,8.377611,0.311141,0.715156,-0.330449,0.577108,1.770025,8.708060,0.472504,-1.370018,-0.433638,-26.760000,-27.660000,-30.480000,143.966,-5.804,16.523,,walk
2025-10-25T21:47:16.890277,2001,39,0.888249,2.485181,8.377611,0.311141,0.715156,-0.330449,0.577108,1.770025,8.708060,0.472504,-1.370018,-0.433638,-26.760000,-27.660000,-30.480000,143.966,-5.804,16.523,,walk
2025-10-25T21:47:16.938954,2050,40,0.888249,2.485181,8.377611,-2.064817,-1.514332,-0.075415,2.953066,3.999514,8.453026,0.426078,-3.172681,0.332998,-26.760000,-27.660000,-30.480000,143.966,-5.804,16.523,,walk
2025-10-25T21:47:16.989154,2100,41,2.628834,1.879448,5.396830,-2.064817,-1.514332,-0.075415,4.693650,3.393781,5.472245,0.426078,-3.172681,0.332998,-35.160000,-30.900000,-14.400000,142.287,-24.703,19.201,,walk
2025-10-25T21:47:17.039408,2151,42,2.628834,1.879448,5.396830,-2.064817,-1.514332,-0.075415,4.693650,3.393781,5.472245,0.426078,-3.172681,0.332998,-35.160000,-30.900000,-14.400000,142.287,-24.703,19.201,,walk
2025-10-25T21:47:17.088952,2200,43,2.628834,1.879448,5.396830,-2.064817,-1.514332,-0.075415,4.693650,3.393781,5.472245,0.426078,-3.172681,0.332998,-35.160000,-30.900000,-14.400000,142.287,-24.703,19.201,,walk
2025-10-25T21:47:17.139213,2250,44,2.628834,1.879448,5.396830,-4.721163,-0.275013,-0.727397,7.349996,2.154461,6.124228,-0.364992,-3.131753,1.957289,-35.160000,-30.900000,-14.400000,142.287,-24.703,19.201,,walk
2025-10-25T21:47:17.189569,2301,45,6.368876,0.742203,3.593697,-4.721163,-0.275013,-0.727397,11.090039,1.017215,4.321094,-0.364992,-3.131753,1.957289,-45.059998,-18.420000,7.140000,159.256,-60.051,11.669,,walk
2025-10-25T21:47:17.239273,2350,46,6.368876,0.742203,3.593697,-4.721163,-0.275013,-0.727397,11.090039,1.017215,4.321094,-0.364992,-3.131753,1.957289,-45.059998,-18.420000,7.140000,159.256,-60.051,11.669,,walk
2025-10-25T21:47:17.289404,2401,47,6.368876,0.742203,3.593697,-4.721163,-0.275013,-0.727397,11.090039,1.017215,4.321094,-0.364992,-3.131753,1.957289,-45.059998,-18.420000,7.140000,159.256,-60.051,11.669,,walk
2025-10-25T21:47:17.340867,2452,48,6.368876,0.742203,3.593697,-3.064329,3.133477,2.382683,9.433205,-2.391275,1.211014,1.791362,-2.087174,2.610914,-45.059998,-18.420000,7.140000,159.256,-60.051,11.669,,walk
2025-10-25T21:47:17.442956,2554,49,15.407287,-4.029441,0.021548,-3.064329,3.133477,2.382683,18.471615,-7.162919,-2.361135,1.791362,-2.087174,2.610914,-45.059998,-18.420000,7.140000,113.611,-75.344,-89.694,,walk
2025-10-25T21:47:17.489106,2600,50,15.407287,-4.029441,0.021548,8.215338,2.303808,-2.060711,7.191949,-6.333249,2.082259,1.304503,1.188286,0.852233,-36.779999,7.980000,29.879999,143.789,-75.344,-89.694,,walk
2025-10-25T21:47:17.539469,2651,51,10.348039,-6.593931,2.379837,8.215338,2.303808,-2.060711,2.132701,-8.897738,4.440548,1.304503,1.188286,0.852233,-36.779999,7.980000,29.879999,167.365,-55.884,-70.155,,walk
2025-10-25T21:47:17.589235,2700,52,10.348039,-6.593931,2.379837,8.215338,2.303808,-2.060711,2.132701,-8.897738,4.440548,1.304503,1.188286,0.852233,-39.599998,23.039999,19.500000,161.640,-55.884,-70.155,,walk
2025-10-25T21:47:17.639596,2751,53,10.348039,-6.593931,2.379837,8.215338,2.303808,-2.060711,2.132701,-8.897738,4.440548,1.304503,1.188286,0.852233,-39.599998,23.039999,19.500000,161.640,-55.884,-70.155,,walk
2025-10-25T21:47:17.689194,2800,54,10.348039,-6.593931,2.379837,4.771068,-0.049170,-2.335418,5.576971,-6.544760,4.715254,1.669189,0.424093,0.378813,-39.599998,23.039999,19.500000,161.640,-55.884,-70.155,,walk
2025-10-25T21:47:17.739149,2850,55,7.192481,-3.598485,4.496311,4.771068,-0.049170,-2.335418,2.421413,-3.549315,6.831728,1.669189,0.424093,0.378813,-39.599998,23.039999,19.500000,-171.059,-51.316,-38.671,,walk
2025-10-25T21:47:17.789666,2901,56,7.192481,-3.598485,4.496311,4.771068,-0.049170,-2.335418,2.421413,-3.549315,6.831728,1.669189,0.424093,0.378813,-40.439999,29.039999,4.020000,-170.965,-51.316,-38.671,,walk
2025-10-25T21:47:17.841146,2952,57,7.192481,-3.598485,4.496311,4.771068,-0.049170,-2.335418,2.421413,-3.549315,6.831728,1.669189,0.424093,0.378813,-40.439999,29.039999,4.020000,-170.965,-51.316,-38.671,,walk
2025-10-25T21:47:17.889584,3001,58,6.589142,-3.708618,5.281908,1.074812,1.208065,-1.473732,5.514330,-4.916684,6.755640,1.587333,-1.200197,-1.111088,-40.439999,29.039999,4.020000,-164.265,-45.594,-35.074,,walk
2025-10-25T21:47:17.939123,3050,59,6.589142,-3.708618,5.281908,1.074812,1.208065,-1.473732,5.514330,-4.916684,6.755640,1.587333,-1.200197,-1.111088,-40.439999,29.039999,4.020000,-164.265,-45.594,-35.074,,walk
2025-10-25T21:47:17.989145,3100,60,6.589142,-3.708618,5.281908,1.074812,1.208065,-1.473732,5.514330,-4.916684,6.755640,1.587333,-1.200197,-1.111088,-45.419998,19.980000,3.420000,178.462,-45.594,-35.074,,walk
2025-10-25T21:47:18.039147,3150,61,6.589142,-3.708618,5.281908,-0.685208,-0.875363,-0.653308,7.274351,-2.833255,5.935216,1.277625,-1.417055,0.085597,-45.419998,19.980000,3.420000,178.462,-45.594,-35.074,,walk
2025-10-25T21:47:18.089260,3200,62,6.601113,-4.094085,3.428497,-0.685208,-0.875363,-0.653308,7.286322,-3.218721,4.081805,1.277625,-1.417055,0.085597,-45.419998,19.980000,3.420000,158.031,-51.028,-50.056,,walk
2025-10-25T21:47:18.139288,3251,63,6.601113,-4.094085,3.428497,-0.685208,-0.875363,-0.653308,7.286322,-3.218721,4.081805,1.277625,-1.417055,0.085597,-45.419998,19.980000,3.420000,158.031,-51.028,-50.056,,walk
2025-10-25T21:47:18.190097,3301,64,6.601113,-4.094085,3.428497,-0.685208,-0.875363,-0.653308,7.286322,-3.218721,4.081805,1.277625,-1.417055,0.085597,-42.660000,17.039999,13.799999,168.219,-51.028,-50.056,,walk
2025-10-25T21:47:18.241977,3353,65,6.601113,-4.094085,3.428497,-2.718376,-2.121617,1.098985,9.319489,-1.972467,2.329512,-0.677755,-1.251510,0.851012,-42.660000,17.039999,13.799999,168.219,-51.028,-50.056,,walk
2025-10-25T21:47:18.289320,3401,66,6.131850,-3.450045,1.472434,-2.718376,-2.121617,1.098985,8.850226,-1.328427,0.373449,-0.677755,-1.251510,0.851012,-42.660000,17.039999,13.799999,149.362,-58.544,-66.888,,walk
2025-10-25T21:47:18.340105,3451,67,6.131850,-3.450045,1.472434,-2.718376,-2.121617,1.098985,8.850226,-1.328427,0.373449,-0.677755,-1.251510,0.851012,-42.660000,17.039999,13.799999,149.362,-58.544,-66.888,,walk
2025-10-25T21:47:18.389127,3500,68,6.131850,-3.450045,1.472434,-2.365836,1.413348,0.918595,8.497685,-4.863393,0.553839,1.291675,-1.484861,1.100245,-32.160000,21.779999,27.240000,174.848,-58.544,-66.888,,walk
2025-10-25T21:47:18.440116,3551,69,13.793295,-1.544260,-4.438850,-2.365836,1.413348,0.918595,16.159131,-2.957608,-5.357445,1.291675,-1.484861,1.100245,-32.160000,21.779999,27.240000,142.557,-71.184,-160.817,,walk
2025-10-25T21:47:18.491108,3602,70,13.793295,-1.544260,-4.438850,-2.365836,1.413348,0.918595,16.159131,-2.957608,-5.357445,1.291675,-1.484861,1.100245,-32.160000,21.779999,27.240000,142.557,-71.184,-160.817,,walk
2025-10-25T21:47:18.540614,3652,71,13.793295,-1.544260,-4.438850,-2.365836,1.413348,0.918595,16.159131,-2.957608,-5.357445,1.291675,-1.484861,1.100245,-32.160000,21.779999,27.240000,142.557,-71.184,-160.817,,walk
2025-10-25T21:47:18.589224,3700,72,13.793295,-1.544260,-4.438850,5.513030,3.666727,-3.765932,8.280265,-5.210987,-0.672918,0.536645,-0.987616,1.080697,-23.639999,26.820000,30.059999,140.730,-71.184,-160.817,,walk
2025-10-25T21:47:18.640392,3752,73,7.544429,-8.030452,1.230620,5.513030,3.666727,-3.765932,2.031399,-11.697178,4.996551,0.536645,-0.987616,1.080697,-23.639999,26.820000,30.059999,-165.266,-42.881,-81.288,,walk
2025-10-25T21:47:18.689512,3801,74,7.544429,-8.030452,1.230620,5.513030,3.666727,-3.765932,2.031399,-11.697178,4.996551,0.536645,-0.987616,1.080697,-23.639999,26.820000,30.059999,-165.266,-42.881,-81.288,,walk
2025-10-25T21:47:18.739470,3851,75,7.544429,-8.030452,1.230620,0.342975,-1.404243,0.596154,7.201454,-6.626209,0.634466,0.859182,0.201127,1.316491,-23.639999,26.820000,30.059999,-165.266,-42.881,-81.288,,walk
2025-10-25T21:47:18.789143,3900,76,5.569212,-4.838682,0.481235,0.342975,-1.404243,0.596154,5.226237,-3.434439,-0.114920,0.859182,0.201127,1.316491,-18.480000,36.540001,23.699999,-170.030,-48.875,-84.320,,walk
2025-10-25T21:47:18.839450,3951,77,5.569212,-4.838682,0.481235,0.342975,-1.404243,0.596154,5.226237,-3.434439,-0.114920,0.859182,0.201127,1.316491,-18.480000,36.540001,23.699999,-170.030,-48.875,-84.320,,walk
2025-10-25T21:47:18.890127,4001,78,5.569212,-4.838682,0.481235,0.342975,-1.404243,0.596154,5.226237,-3.434439,-0.114920,0.859182,0.201127,1.316491,-18.480000,36.540001,23.699999,-170.030,-48.875,-84.320,,walk
2025-10-25T21:47:18.939769,4051,79,5.569212,-4.838682,0.481235,-0.042376,2.982952,-1.390243,5.611588,-7.821634,1.871477,1.488984,-1.930792,1.640249,-18.480000,36.540001,23.699999,-170.030,-48.875,-84.320,,walk
2025-10-25T21:47:18.989826,4101,80,7.800609,-8.166922,-0.562637,-0.042376,2.982952,-1.390243,7.842985,-11.149874,0.827606,1.488984,-1.930792,1.640249,-7.440000,43.680000,15.240000,-169.717,-43.618,-93.941,,walk
2025-10-25T21:47:19.040375,4152,81,7.800609,-8.166922,-0.562637,-0.042376,2.982952,-1.390243,7.842985,-11.149874,0.827606,1.488984,-1.930792,1.640249,-7.440000,43.680000,15.240000,-169.717,-43.618,-93.941,,walk
2025-10-25T21:47:19.090531,4202,82,7.800609,-8.166922,-0.562637,-0.042376,2.982952,-1.390243,7.842985,-11.149874,0.827606,1.488984,-1.930792,1.640249,-7.440000,43.680000,15.240000,-169.717,-43.618,-93.941,,walk
2025-10-25T21:47:19.143494,4255,83,6.289867,-5.590760,1.680730,2.689701,0.154124,-1.462041,3.600166,-5.744884,3.142770,-1.514030,1.409419,0.741667,-7.440000,43.680000,15.240000,-133.205,-47.134,-73.268,,walk
2025-10-25T21:47:19.190123,4301,84,6.289867,-5.590760,1.680730,2.689701,0.154124,-1.462041,3.600166,-5.744884,3.142770,-1.514030,1.409419,0.741667,-4.800000,42.119999,23.039999,-130.295,-47.134,-73.268,,walk
2025-10-25T21:47:19.240417,4352,85,6.289867,-5.590760,1.680730,2.689701,0.154124,-1.462041,3.600166,-5.744884,3.142770,-1.514030,1.409419,0.741667,-4.800000,42.119999,23.039999,-130.295,-47.134,-73.268,,walk
2025-10-25T21:47:19.289850,4401,86,6.289867,-5.590760,1.680730,0.718889,2.476245,1.920798,5.570978,-8.067005,-0.240068,-0.429744,-0.678519,-0.319406,-4.800000,42.119999,23.039999,-130.295,-47.134,-73.268,,walk
2025-10-25T21:47:19.340028,4451,87,2.856283,-7.276278,0.361524,0.718889,2.476245,1.920798,2.137394,-9.752523,-1.559274,-0.429744,-0.678519,-0.319406,-4.800000,42.119999,23.039999,-120.614,-21.408,-87.156,,walk
2025-10-25T21:47:19.390444,4502,88,2.856283,-7.276278,0.361524,0.718889,2.476245,1.920798,2.137394,-9.752523,-1.559274,-0.429744,-0.678519,-0.319406,-7.860000,35.820000,29.219999,-124.585,-21.408,-87.156,,walk
2025-10-25T21:47:19.440348,4552,89,2.856283,-7.276278,0.361524,0.718889,2.476245,1.920798,2.137394,-9.752523,-1.559274,-0.429744,-0.678519,-0.319406,-7.860000,35.820000,29.219999,-124.585,-21.408,-87.156,,walk
2025-10-25T21:47:19.489923,4601,90,2.856283,-7.276278,0.361524,-2.202380,1.108414,0.887616,5.058663,-8.384692,-0.526091,0.588569,0.711811,0.912098,-7.860000,35.820000,29.219999,-124.585,-21.408,-87.156,,walk
2025-10-25T21:47:19.540604,4652,91,4.817134,-7.623437,-3.169923,-2.202380,1.108414,0.887616,7.019514,-8.731852,-4.057539,0.588569,0.711811,0.912098,-7.860000,35.820000,29.219999,-164.680,-30.262,-112.578,,walk
2025-10-25T21:47:19.590368,4702,92,4.817134,-7.623437,-3.169923,-2.202380,1.108414,0.887616,7.019514,-8.731852,-4.057539,0.588569,0.711811,0.912098,-4.140000,36.599998,29.519999,-157.709,-30.262,-112.578,,walk
2025-10-25T21:47:19.640411,4752,93,4.817134,-7.623437,-3.169923,-2.202380,1.108414,0.887616,7.019514,-8.731852,-4.057539,0.588569,0.711811,0.912098,-4.140000,36.599998,29.519999,-157.709,-30.262,-112.578,,walk
2025-10-25T21:47:19.689925,4801,94,5.073613,-12.258612,-1.407791,0.517533,1.189462,-3.042355,4.556079,-13.448074,1.634565,1.657583,0.724639,1.751427,-4.140000,36.599998,29.519999,-125.147,-22.351,-96.551,,walk
2025-10-25T21:47:19.740649,4852,95,5.073613,-12.258612,-1.407791,0.517533,1.189462,-3.042355,4.556079,-13.448074,1.634565,1.657583,0.724639,1.751427,-4.140000,36.599998,29.519999,-125.147,-22.351,-96.551,,walk
2025-10-25T21:47:19.790133,4901,96,5.073613,-12.258612,-1.407791,0.517533,1.189462,-3.042355,4.556079,-13.448074,1.634565,1.657583,0.724639,1.751427,-1.740000,38.879997,28.619999,-120.506,-22.351,-96.551,,walk
2025-10-25T21:47:19.840555,4952,97,5.073613,-12.258612,-1.407791,1.596278,-3.159635,-2.542148,3.477334,-9.098977,1.134357,0.661262,0.956768,-0.328569,-1.740000,38.879997,28.619999,-120.506,-22.351,-96.551,,walk
2025-10-25T21:47:19.891028,5002,98,3.754108,-7.889194,-1.043872,1.596278,-3.159635,-2.542148,2.157830,-4.729559,1.498276,0.661262,0.956768,-0.328569,-1.740000,38.879997,28.619999,-124.811,-25.255,-97.537,,walk
2025-10-25T21:47:19.939599,5051,99,3.754108,-7.889194,-1.043872,1.596278,-3.159635,-2.542148,2.157830,-4.729559,1.498276,0.661262,0.956768,-0.328569,-1.740000,38.879997,28.619999,-124.811,-25.255,-97.537,,walk
2025-10-25T21:47:19.990545,5102,100,3.754108,-7.889194,-1.043872,1.596278,-3.159635,-2.542148,2.157830,-4.729559,1.498276,0.661262,0.956768,-0.328569,-2.700000,42.419998,24.119999,-130.478,-25.255,-97.537,,walk
2025-10-25T21:47:20.043428,5155,101,3.754108,-7.889194,-1.043872,0.686280,1.137663,-3.340517,3.067828,-9.026857,2.296645,0.988075,0.022144,0.493655,-2.700000,42.419998,24.119999,-130.478,-25.255,-97.537,,walk
2025-10-25T21:47:20.089646,5201,102,4.797980,-7.891588,0.237026,0.686280,1.137663,-3.340517,4.111700,-9.029252,3.577543,0.988075,0.022144,0.493655,-2.700000,42.419998,24.119999,-125.923,-31.288,-88.280,,walk
2025-10-25T21:47:20.139327,5251,103,4.797980,-7.891588,0.237026,0.686280,1.137663,-3.340517,4.111700,-9.029252,3.577543,0.988075,0.022144,0.493655,-2.700000,42.419998,24.119999,-125.923,-31.288,-88.280,,walk
2025-10-25T21:47:20.189468,5301,104,4.797980,-7.891588,0.237026,2.558954,1.138206,-2.864545,2.239027,-9.029794,3.101571,-1.478599,-0.755488,1.841224,-1.320000,45.180000,18.000000,-123.139,-31.288,-88.280,,walk
2025-10-25T21:47:31.066293,16178,105,3.682282,-7.716811,-0.126893,2.558954,1.138206,-2.864545,1.123329,-8.855017,2.737652,-1.478599,-0.755488,1.841224,-1.320000,45.180000,18.000000,-120.916,-25.506,-90.942,,walk
2025-10-25T21:47:31.125505,16237,106,2.123657,-14.042293,-2.133234,2.558954,1.138206,-2.864545,-0.435297,-15.180498,0.731311,-1.478599,-0.755488,1.841224,-1.320000,45.180000,18.000000,-110.481,-8.504,-98.638,,walk
2025-10-25T21:47:31.161759,16273,107,2.123657,-14.042293,-2.133234,3.569355,-4.452872,-3.590313,-1.445698,-9.589420,1.457079,-3.646560,-1.698663,-0.445855,-1.320000,45.180000,18.000000,-110.481,-8.504,-98.638,,walk
2025-10-25T21:47:31.211765,16323,108,2.123657,-14.042293,-2.133234,3.569355,-4.452872,-3.590313,-1.445698,-9.589420,1.457079,-3.646560,-1.698663,-0.445855,-1.320000,45.180000,18.000000,-110.481,-8.504,-98.638,,walk
2025-10-25T21:47:31.262684,16374,109,2.123657,-14.042293,-2.133234,3.569355,-4.452872,-3.590313,-1.445698,-9.589420,1.457079,-3.646560,-1.698663,-0.445855,-1.320000,45.180000,18.000000,-110.481,-8.504,-98.638,,walk
2025-10-25T21:47:31.312193,16423,110,-1.498770,-8.655338,-1.015141,3.569355,-4.452872,-3.590313,-5.068125,-4.202466,2.575172,-3.646560,-1.698663,-0.445855,18.959999,27.959999,28.199999,-42.035,9.758,-96.689,,walk
2025-10-25T21:47:31.362530,16474,111,-1.498770,-8.655338,-1.015141,-0.615448,0.674487,1.873473,-0.883322,-9.329825,-2.888615,-1.510364,-0.726166,-0.202731,18.959999,27.959999,28.199999,-42.035,9.758,-96.689,,walk
2025-10-25T21:47:31.412301,16524,112,-1.498770,-8.655338,-1.015141,-0.615448,0.674487,1.873473,-0.883322,-9.329825,-2.888615,-1.510364,-0.726166,-0.202731,18.959999,27.959999,28.199999,-42.035,9.758,-96.689,,walk
2025-10-25T21:47:31.470544,16582,113,-1.498770,-8.655338,-1.015141,-0.615448,0.674487,1.873473,-0.883322,-9.329825,-2.888615,-1.510364,-0.726166,-0.202731,18.959999,27.959999,28.199999,-42.035,9.758,-96.689,,walk
2025-10-25T21:47:31.511828,16623,114,-2.164358,-5.456685,-0.208296,-1.514484,3.727694,3.167308,-0.649874,-9.184379,-3.375603,1.806023,-0.925919,-0.006032,19.920000,21.779999,33.239998,-36.437,21.621,-92.186,,walk
2025-10-25T21:47:31.561558,16673,115,-2.164358,-5.456685,-0.208296,-1.514484,3.727694,3.167308,-0.649874,-9.184379,-3.375603,1.806023,-0.925919,-0.006032,19.920000,21.779999,33.239998,-36.437,21.621,-92.186,,walk
2025-10-25T21:47:31.611973,16723,116,-2.164358,-5.456685,-0.208296,-1.514484,3.727694,3.167308,-0.649874,-9.184379,-3.375603,1.806023,-0.925919,-0.006032,19.920000,21.779999,33.239998,-36.437,21.621,-92.186,,walk
2025-10-25T21:47:31.661814,16773,117,-2.085350,-5.576395,4.541800,-1.514484,3.727694,3.167308,-0.570866,-9.304089,1.374493,1.806023,-0.925919,-0.006032,19.920000,21.779999,33.239998,-50.310,16.170,-50.838,,walk
2025-10-25T21:47:39.071376,24183,118,-2.085350,-5.576395,4.541800,-1.514484,3.727694,3.167308,-0.570866,-9.304089,1.374493,1.806023,-0.925919,-0.006032,19.920000,21.779999,33.239998,-50.310,16.170,-50.838,,walk
2025-10-25T21:47:39.118799,24230,119,0.596156,-13.716681,-1.015141,-1.514484,3.727694,3.167308,2.110640,-17.444374,-4.182449,1.806023,-0.925919,-0.006032,19.920000,21.779999,33.239998,-60.303,-2.482,-94.233,,walk
2025-10-25T21:47:39.168510,24280,120,0.596156,-13.716681,-1.015141,1.980097,-4.113460,-2.440953,-1.383941,-9.603221,1.425811,-3.714366,-1.503798,-0.480675,19.920000,21.779999,33.239998,-60.303,-2.482,-94.233,,walk
2025-10-25T21:47:39.218937,24330,121,0.596156,-13.716681,-1.015141,1.980097,-4.113460,-2.440953,-1.383941,-9.603221,1.425811,-3.714366,-1.503798,-0.480675,23.100000,32.340000,15.420000,-31.946,-2.482,-94.233,,walk
2025-10-25T21:47:39.268865,24380,122,0.596156,-13.716681,-1.015141,1.980097,-4.113460,-2.440953,-1.383941,-9.603221,1.425811,-3.714366,-1.503798,-0.480675,23.100000,32.340000,15.420000,-31.946,-2.482,-94.233,,walk
2025-10-25T21:47:39.318737,24430,123,-2.466028,-9.993697,-2.061408,1.980097,-4.113460,-2.440953,-4.446125,-5.880238,0.379545,-3.714366,-1.503798,-0.480675,23.100000,32.340000,15.420000,-6.198,13.586,-101.655,,walk
2025-10-25T21:47:39.368629,24480,124,-2.466028,-9.993697,-2.061408,-1.545640,-0.693395,0.909652,-0.920388,-9.300303,-2.971059,-1.910481,-1.254565,-0.311465,23.100000,32.340000,15.420000,-6.198,13.586,-101.655,,walk
2025-10-25T21:47:39.420176,24531,125,-2.466028,-9.993697,-2.061408,-1.545640,-0.693395,0.909652,-0.920388,-9.300303,-2.971059,-1.910481,-1.254565,-0.311465,20.939999,21.959999,30.660000,-35.881,13.586,-101.655,,walk
2025-10-25T21:47:39.468742,24580,126,-2.806004,-5.870882,0.387861,-1.545640,-0.693395,0.909652,-1.260364,-5.177487,-0.521791,-1.910481,-1.254565,-0.311465,20.939999,21.959999,30.660000,-32.012,25.497,-86.220,,walk
2025-10-25T21:47:39.518741,24630,127,-2.806004,-5.870882,0.387861,-1.545640,-0.693395,0.909652,-1.260364,-5.177487,-0.521791,-1.910481,-1.254565,-0.311465,20.939999,21.959999,30.660000,-32.012,25.497,-86.220,,walk
2025-10-25T21:47:39.568784,24680,128,-2.806004,-5.870882,0.387861,-2.312362,3.414247,3.504388,-0.493642,-9.285129,-3.116527,2.186592,-0.563065,0.322002,20.939999,21.959999,30.660000,-32.012,25.497,-86.220,,walk
2025-10-25T21:47:39.619968,24731,129,-2.806004,-5.870882,0.387861,-2.312362,3.414247,3.504388,-0.493642,-9.285129,-3.116527,2.186592,-0.563065,0.322002,22.740000,24.900000,25.859999,-25.596,25.497,-86.220,,walk
2025-10-25T21:47:39.668996,24780,130,-0.088585,-5.892430,3.768473,-2.312362,3.414247,3.504388,2.223777,-9.306676,0.264086,2.186592,-0.563065,0.322002,22.740000,24.900000,25.859999,-56.582,0.726,-57.399,,walk
2025-10-25T21:47:39.718932,24830,131,-0.088585,-5.892430,3.768473,0.406022,3.642027,6.008887,-0.494608,-9.534457,-2.240414,-0.661262,3.609145,0.068493,22.740000,24.900000,25.859999,-56.582,0.726,-57.399,,walk
2025-10-25T21:47:39.769487,24881,132,-0.088585,-5.892430,3.768473,0.406022,3.642027,6.008887,-0.494608,-9.534457,-2.240414,-0.661262,3.609145,0.068493,22.740000,24.900000,25.859999,-56.582,0.726,-57.399,,walk
2025-10-25T21:47:39.819024,24930,133,-0.088585,-5.892430,3.768473,0.406022,3.642027,6.008887,-0.494608,-9.534457,-2.240414,-0.661262,3.609145,0.068493,20.580000,27.299999,26.279999,-60.277,0.726,-57.399,,walk
2025-10-25T21:47:39.869390,24981,134,1.010353,-12.763788,4.891354,0.406022,3.642027,6.008887,0.604331,-16.405816,-1.117533,-0.661262,3.609145,0.068493,20.580000,27.299999,26.279999,-62.470,-4.227,-69.032,,walk
2025-10-25T21:47:39.919754,25031,135,1.010353,-12.763788,4.891354,1.922367,-3.002085,4.673748,-0.912014,-9.761703,0.217607,1.113913,-0.418290,-0.494724,20.580000,27.299999,26.279999,-62.470,-4.227,-69.032,,walk
2025-10-25T21:47:39.969326,25081,136,1.010353,-12.763788,4.891354,1.922367,-3.002085,4.673748,-0.912014,-9.761703,0.217607,1.113913,-0.418290,-0.494724,20.580000,27.299999,26.279999,-62.470,-4.227,-69.032,,walk
2025-10-25T21:47:40.019591,25131,137,-1.094150,-8.992921,-0.270545,1.922367,-3.002085,4.673748,-3.016517,-5.990836,-4.944292,1.113913,-0.418290,-0.494724,20.820000,32.820000,18.719999,-33.326,6.934,-91.723,,walk
2025-10-25T21:47:40.071319,25183,138,-1.094150,-8.992921,-0.270545,1.922367,-3.002085,4.673748,-3.016517,-5.990836,-4.944292,1.113913,-0.418290,-0.494724,20.820000,32.820000,18.719999,-33.326,6.934,-91.723,,walk
2025-10-25T21:47:40.119748,25231,139,-1.094150,-8.992921,-0.270545,-0.074571,0.598427,-2.041588,-1.019579,-9.591348,1.771043,1.085813,-0.138514,0.565738,20.820000,32.820000,18.719999,-33.326,6.934,-91.723,,walk
2025-10-25T21:47:40.169449,25281,140,-1.094150,-8.992921,-0.270545,-0.074571,0.598427,-2.041588,-1.019579,-9.591348,1.771043,1.085813,-0.138514,0.565738,20.820000,32.820000,18.719999,-33.326,6.934,-91.723,,walk
2025-10-25T21:47:40.219755,25331,141,1.651999,-12.447754,1.343147,-0.074571,0.598427,-2.041588,1.726570,-13.046181,3.384735,1.085813,-0.138514,0.565738,23.039999,33.419998,14.460000,-44.842,-7.517,-83.841,,walk
2025-10-25T21:47:40.271816,25383,142,1.651999,-12.447754,1.343147,2.809464,-2.927488,-0.704970,-1.157465,-9.520266,2.048117,-1.584279,-0.654084,-0.369497,23.039999,33.419998,14.460000,-44.842,-7.517,-83.841,,walk
2025-10-25T21:47:40.319541,25431,143,1.651999,-12.447754,1.343147,2.809464,-2.927488,-0.704970,-1.157465,-9.520266,2.048117,-1.584279,-0.654084,-0.369497,23.039999,33.419998,14.460000,-44.842,-7.517,-83.841,,walk
2025-10-25T21:47:40.369446,25481,144,-4.721366,-13.139678,6.349722,2.809464,-2.927488,-0.704970,-7.530830,-10.212190,7.054692,-1.584279,-0.654084,-0.369497,23.039999,33.419998,14.460000,-37.917,17.928,-64.208,,walk
2025-10-25T21:47:40.419789,25531,145,-4.721366,-13.139678,6.349722,2.809464,-2.927488,-0.704970,-7.530830,-10.212190,7.054692,-1.584279,-0.654084,-0.369497,21.959999,28.379999,26.639999,-44.990,17.928,-64.208,,walk
2025-10-25T21:47:40.468914,25580,146,-4.721366,-13.139678,6.349722,-4.058330,-3.639520,8.690097,-0.663036,-9.500158,-2.340374,-2.280665,0.075289,-0.351782,21.959999,28.379999,26.639999,-44.990,17.928,-64.208,,walk
2025-10-25T21:47:40.519774,25631,147,-4.721366,-13.139678,6.349722,-4.058330,-3.639520,8.690097,-0.663036,-9.500158,-2.340374,-2.280665,0.075289,-0.351782,21.959999,28.379999,26.639999,-44.990,17.928,-64.208,,walk
2025-10-25T21:47:40.569350,25681,148,-0.136469,-5.856517,-0.418985,-4.058330,-3.639520,8.690097,3.921860,-2.216997,-9.109082,-2.280665,0.075289,-0.351782,21.959999,28.379999,26.639999,-46.792,1.331,-94.092,,walk
2025-10-25T21:47:40.619469,25731,149,-0.136469,-5.856517,-0.418985,0.469932,3.026762,3.690716,-0.606402,-8.883279,-4.109701,0.565967,-0.287565,-0.100106,19.020000,17.520000,35.399998,-59.449,1.331,-94.092,,walk
2025-10-25T21:47:40.668887,25780,150,-0.136469,-5.856517,-0.418985,0.469932,3.026762,3.690716,-0.606402,-8.883279,-4.109701,0.565967,-0.287565,-0.100106,19.020000,17.520000,35.399998,-59.449,1.331,-94.092,,walk
2025-10-25T21:47:40.718972,25830,151,-0.136469,-5.856517,-0.418985,0.469932,3.026762,3.690716,-0.606402,-8.883279,-4.109701,0.565967,-0.287565,-0.100106,19.020000,17.520000,35.399998,-59.449,1.331,-94.092,,walk
2025-10-25T21:47:40.769401,25881,152,5.890036,-26.270079,-26.871023,0.469932,3.026762,3.690716,5.420103,-29.296841,-30.561739,0.565967,-0.287565,-0.100106,19.020000,17.520000,35.399998,-46.408,-8.908,-135.648,,walk
2025-10-25T21:47:40.819386,25931,153,5.890036,-26.270079,-26.871023,6.757131,-17.125389,-23.436962,-0.867095,-9.144690,-3.434061,0.523206,-0.943634,-0.338954,20.939999,19.320000,31.559999,-32.968,-8.908,-135.648,,walk
2025-10-25T21:47:40.869374,25981,154,5.890036,-26.270079,-26.871023,6.757131,-17.125389,-23.436962,-0.867095,-9.144690,-3.434061,0.523206,-0.943634,-0.338954,20.939999,19.320000,31.559999,-32.968,-8.908,-135.648,,walk
2025-10-25T21:47:40.919535,26031,155,-5.492598,-4.893748,6.354511,6.757131,-17.125389,-23.436962,-12.249729,12.231641,29.791473,0.523206,-0.943634,-0.338954,20.939999,19.320000,31.559999,-34.329,34.404,-37.601,,walk
2025-10-25T21:47:40.970282,26082,156,-5.492598,-4.893748,6.354511,6.757131,-17.125389,-23.436962,-12.249729,12.231641,29.791473,0.523206,-0.943634,-0.338954,20.939999,19.320000,31.559999,-34.329,34.404,-37.601,,walk
2025-10-25T21:47:41.019997,26131,157,-5.492598,-4.893748,6.354511,-4.535242,4.748343,7.865706,-0.957356,-9.642092,-1.511195,1.699733,0.567036,0.880333,19.559999,25.139999,29.820000,-40.513,34.404,-37.601,,walk
2025-10-25T21:47:41.069872,26181,158,-5.492598,-4.893748,6.354511,-4.535242,4.748343,7.865706,-0.957356,-9.642092,-1.511195,1.699733,0.567036,0.880333,19.559999,25.139999,29.820000,-40.513,34.404,-37.601,,walk
2025-10-25T21:47:41.119478,26231,159,-1.063026,-8.583512,-0.268151,-4.535242,4.748343,7.865706,3.472216,-13.331856,-8.133857,1.699733,0.567036,0.880333,19.559999,25.139999,29.820000,-48.837,7.056,-91.789,,walk
2025-10-25T21:47:41.169417,26281,160,-1.063026,-8.583512,-0.268151,-0.304896,1.161165,-1.065945,-0.758130,-9.744678,0.797795,0.432187,0.658055,0.188834,19.559999,25.139999,29.820000,-48.837,7.056,-91.789,,walk
2025-10-25T21:47:41.219637,26331,161,-1.063026,-8.583512,-0.268151,-0.304896,1.161165,-1.065945,-0.758130,-9.744678,0.797795,0.432187,0.658055,0.188834,17.520000,32.639999,23.100000,-44.310,7.056,-91.789,,walk
2025-10-25T21:47:41.271940,26383,162,1.446098,-9.742306,1.436521,-0.304896,1.161165,-1.065945,1.750994,-10.903471,2.502466,0.432187,0.658055,0.188834,17.520000,32.639999,23.100000,-64.937,-8.354,-81.612,,walk
2025-10-25T21:47:41.319604,26431,163,1.446098,-9.742306,1.436521,-0.304896,1.161165,-1.065945,1.750994,-10.903471,2.502466,0.432187,0.658055,0.188834,17.520000,32.639999,23.100000,-64.937,-8.354,-81.612,,walk
2025-10-25T21:47:41.369694,26481,164,1.446098,-9.742306,1.436521,2.864734,-0.280298,-0.714769,-1.418636,-9.462008,2.151290,0.631329,-0.185550,-0.065286,17.520000,32.639999,23.100000,-64.937,-8.354,-81.612,,walk
2025-10-25T21:47:41.419768,26531,165,1.446098,-9.742306,1.436521,2.864734,-0.280298,-0.714769,-1.418636,-9.462008,2.151290,0.631329,-0.185550,-0.065286,19.320000,34.439999,18.480000,-57.600,-8.354,-81.612,,walk
2025-10-25T21:47:41.469664,26581,166,-1.656788,-13.211504,-2.748544,2.864734,-0.280298,-0.714769,-4.521522,-12.931206,-2.033774,0.631329,-0.185550,-0.065286,19.320000,34.439999,18.480000,-21.955,7.000,-101.752,,walk
2025-10-25T21:47:41.518577,26630,167,-1.656788,-13.211504,-2.748544,-0.186039,-3.616031,-4.139215,-1.470748,-9.595473,1.390671,-3.055853,-1.629025,0.095982,19.320000,34.439999,18.480000,-21.955,7.000,-101.752,,walk
2025-10-25T21:47:41.568924,26680,168,-1.656788,-13.211504,-2.748544,-0.186039,-3.616031,-4.139215,-1.470748,-9.595473,1.390671,-3.055853,-1.629025,0.095982,19.320000,34.439999,18.480000,-21.955,7.000,-101.752,,walk
2025-10-25T21:47:41.619857,26731,169,0.454898,-9.277831,-1.410185,-0.186039,-3.616031,-4.139215,0.640938,-5.661800,2.729030,-3.055853,-1.629025,0.095982,22.199999,27.480000,27.299999,-48.886,-2.775,-98.643,,walk
2025-10-25T21:47:41.668923,26780,170,0.454898,-9.277831,-1.410185,-0.186039,-3.616031,-4.139215,0.640938,-5.661800,2.729030,-3.055853,-1.629025,0.095982,22.199999,27.480000,27.299999,-48.886,-2.775,-98.643,,walk
2025-10-25T21:47:41.720129,26831,171,0.454898,-9.277831,-1.410185,1.322960,0.172151,1.062516,-0.868061,-9.449982,-2.472701,-1.523803,-0.439670,-0.593685,22.199999,27.480000,27.299999,-48.886,-2.775,-98.643,,walk
2025-10-25T21:47:41.769368,26881,172,0.454898,-9.277831,-1.410185,1.322960,0.172151,1.062516,-0.868061,-9.449982,-2.472701,-1.523803,-0.439670,-0.593685,22.199999,27.480000,27.299999,-48.886,-2.775,-98.643,,walk
2025-10-25T21:47:41.819466,26931,173,-1.225831,-6.955455,-0.768539,1.322960,0.172151,1.062516,-2.548791,-7.127606,-1.831055,-1.523803,-0.439670,-0.593685,16.920000,19.680000,35.700001,-52.631,9.936,-96.305,,walk
2025-10-25T21:47:41.869686,26981,174,-1.225831,-6.955455,-0.768539,1.322960,0.172151,1.062516,-2.548791,-7.127606,-1.831055,-1.523803,-0.439670,-0.593685,16.920000,19.680000,35.700001,-52.631,9.936,-96.305,,walk
2025-10-25T21:47:41.919762,27031,175,-1.225831,-6.955455,-0.768539,-0.732076,2.172963,2.780854,-0.493756,-9.128418,-3.549392,0.654542,-0.305891,-0.042073,16.920000,19.680000,35.700001,-52.631,9.936,-96.305,,walk
2025-10-25T21:47:41.969231,27080,176,-1.225831,-6.955455,-0.768539,-0.732076,2.172963,2.780854,-0.493756,-9.128418,-3.549392,0.654542,-0.305891,-0.042073,16.920000,19.680000,35.700001,-52.631,9.936,-96.305,,walk
2025-10-25T21:47:42.019223,27130,177,9.974544,-21.026478,-15.100829,-0.732076,2.172963,2.780854,10.706619,-23.199440,-17.881683,0.654542,-0.305891,-0.042073,20.939999,21.959999,31.500000,-64.446,-21.072,-125.685,,walk
2025-10-25T21:47:42.069861,27181,178,9.974544,-21.026478,-15.100829,10.696808,-11.586522,-12.544312,-0.722264,-9.439956,-2.556518,1.526247,0.005040,-0.075060,20.939999,21.959999,31.500000,-64.446,-21.072,-125.685,,walk
2025-10-25T21:47:42.119787,27231,179,9.974544,-21.026478,-15.100829,10.696808,-11.586522,-12.544312,-0.722264,-9.439956,-2.556518,1.526247,0.005040,-0.075060,20.939999,21.959999,31.500000,-64.446,-21.072,-125.685,,walk
2025-10-25T21:47:42.169008,27280,180,-0.857124,-4.956297,6.292261,10.696808,-11.586522,-12.544312,-11.553932,6.630225,18.836573,1.526247,0.005040,-0.075060,20.939999,21.959999,31.500000,-55.562,6.108,-38.227,,walk
2025-10-25T21:47:42.220117,27331,181,-0.857124,-4.956297,6.292261,10.696808,-11.586522,-12.544312,-11.553932,6.630225,18.836573,1.526247,0.005040,-0.075060,21.660000,26.219999,28.559999,-56.223,6.108,-38.227,,walk
2025-10-25T21:47:42.269513,27381,182,-0.857124,-4.956297,6.292261,0.690516,4.714280,6.796899,-1.547640,-9.670577,-0.504638,1.908038,-0.745714,0.710513,21.660000,26.219999,28.559999,-56.223,6.108,-38.227,,walk
2025-10-25T21:47:42.319469,27431,183,-0.857124,-4.956297,6.292261,0.690516,4.714280,6.796899,-1.547640,-9.670577,-0.504638,1.908038,-0.745714,0.710513,21.660000,26.219999,28.559999,-56.223,6.108,-38.227,,walk
2025-10-25T21:47:42.369858,27481,184,-1.781286,-9.186852,-1.414973,0.690516,4.714280,6.796899,-2.471802,-13.901132,-8.211873,1.908038,-0.745714,0.710513,21.660000,26.219999,28.559999,-36.477,10.848,-98.756,,walk
2025-10-25T21:47:42.419164,27530,185,-1.781286,-9.186852,-1.414973,-0.508828,0.491268,-2.355629,-1.272458,-9.678120,0.940656,0.933708,0.247553,-0.120264,21.480000,31.080000,24.959999,-31.005,10.848,-98.756,,walk
2025-10-25T21:47:42.469541,27581,186,-1.781286,-9.186852,-1.414973,-0.508828,0.491268,-2.355629,-1.272458,-9.678120,0.940656,0.933708,0.247553,-0.120264,21.480000,31.080000,24.959999,-31.005,10.848,-98.756,,walk
2025-10-25T21:47:42.524441,27636,187,-1.781286,-9.186852,-1.414973,-0.508828,0.491268,-2.355629,-1.272458,-9.678120,0.940656,0.933708,0.247553,-0.120264,21.480000,31.080000,24.959999,-31.005,10.848,-98.756,,walk
2025-10-25T21:47:42.570189,27681,188,-1.015141,-9.629779,0.009577,-0.508828,0.491268,-2.355629,-0.506313,-10.121047,2.365206,0.933708,0.247553,-0.120264,21.480000,31.080000,24.959999,-43.307,6.018,-89.943,,walk
2025-10-25T21:47:42.619772,27731,189,-1.015141,-9.629779,0.009577,0.725979,-0.342548,-2.614565,-1.741120,-9.287230,2.624142,0.259923,0.154702,0.183336,22.619999,34.259998,17.160000,-31.226,6.018,-89.943,,walk
2025-10-25T21:47:42.670433,27782,190,-1.015141,-9.629779,0.009577,0.725979,-0.342548,-2.614565,-1.741120,-9.287230,2.624142,0.259923,0.154702,0.183336,22.619999,34.259998,17.160000,-31.226,6.018,-89.943,,walk
2025-10-25T21:47:42.719570,27831,191,1.240196,-13.968072,-2.458845,0.725979,-0.342548,-2.614565,0.514218,-13.625524,0.155720,0.259923,0.154702,0.183336,22.619999,34.259998,17.160000,-31.389,-4.997,-99.984,,walk
2025-10-25T21:47:42.769975,27881,192,1.240196,-13.968072,-2.458845,0.725979,-0.342548,-2.614565,0.514218,-13.625524,0.155720,0.259923,0.154702,0.183336,22.619999,34.259998,17.160000,-31.389,-4.997,-99.984,,walk
2025-10-25T21:47:42.819861,27931,193,1.240196,-13.968072,-2.458845,2.746433,-4.292650,-2.995119,-1.506237,-9.675422,0.536274,-3.572645,0.152258,-0.054291,24.119999,29.580000,20.939999,-38.220,-4.997,-99.984,,walk
2025-10-25T21:47:42.868814,27980,194,1.240196,-13.968072,-2.458845,2.746433,-4.292650,-2.995119,-1.506237,-9.675422,0.536274,-3.572645,0.152258,-0.054291,24.119999,29.580000,20.939999,-38.220,-4.997,-99.984,,walk
2025-10-25T21:47:42.919819,28031,195,-0.644040,-10.288184,-1.747767,2.746433,-4.292650,-2.995119,-3.390473,-5.995534,1.247352,-3.572645,0.152258,-0.054291,24.119999,29.580000,20.939999,-29.218,3.532,-99.641,,walk
2025-10-25T21:47:42.969132,28080,196,-0.644040,-10.288184,-1.747767,0.301679,-0.979823,1.189893,-0.945719,-9.308361,-2.937660,-1.063211,0.123547,-0.574748,24.119999,29.580000,20.939999,-29.218,3.532,-99.641,,walk
2025-10-25T21:47:43.019779,28131,197,-0.644040,-10.288184,-1.747767,0.301679,-0.979823,1.189893,-0.945719,-9.308361,-2.937660,-1.063211,0.123547,-0.574748,18.779999,20.820000,34.860001,-54.854,3.532,-99.641,,walk
2025-10-25T21:47:43.068908,28180,198,-1.046266,-6.474221,-1.127669,0.301679,-0.979823,1.189893,-1.347945,-5.494398,-2.317562,-1.063211,0.123547,-0.574748,18.779999,20.820000,34.860001,-48.788,9.046,-99.881,,walk
2025-10-25T21:47:43.120097,28231,199,-1.046266,-6.474221,-1.127669,0.301679,-0.979823,1.189893,-1.347945,-5.494398,-2.317562,-1.063211,0.123547,-0.574748,18.779999,20.820000,34.860001,-48.788,9.046,-99.881,,walk
2025-10-25T21:47:43.169491,28281,200,-1.046266,-6.474221,-1.127669,-0.344659,2.875353,1.746904,-0.701607,-9.349574,-2.874573,1.657583,-0.393855,0.285961,18.779999,20.820000,34.860001,-48.788,9.046,-99.881,,walk
2025-10-25T21:47:43.219025,28330,201,-1.046266,-6.474221,-1.127669,-0.344659,2.875353,1.746904,-0.701607,-9.349574,-2.874573,1.657583,-0.393855,0.285961,20.219999,23.939999,30.240000,-41.898,9.046,-99.881,,walk
2025-10-25T21:47:43.269574,28381,202,-0.146046,-4.115633,-1.264138,-0.344659,2.875353,1.746904,0.198613,-6.990986,-3.011043,1.657583,-0.393855,0.285961,20.219999,23.939999,30.240000,-44.963,1.943,-107.075,,walk
2025-10-25T21:47:43.319506,28431,203,-0.146046,-4.115633,-1.264138,0.766880,5.517591,0.328772,-0.912926,-9.633224,-1.592910,2.407115,1.451568,1.616426,20.219999,23.939999,30.240000,-44.963,1.943,-107.075,,walk
2025-10-25T21:47:43.369344,28481,204,-0.146046,-4.115633,-1.264138,0.766880,5.517591,0.328772,-0.912926,-9.633224,-1.592910,2.407115,1.451568,1.616426,20.219999,23.939999,30.240000,-44.963,1.943,-107.075,,walk
2025-10-25T21:47:43.419856,28531,205,-0.146046,-4.115633,-1.264138,0.766880,5.517591,0.328772,-0.912926,-9.633224,-1.592910,2.407115,1.451568,1.616426,20.340000,27.779999,29.099998,-41.692,1.943,-107.075,,walk
2025-10-25T21:47:43.471588,28583,206,-0.849942,-6.423943,4.613626,0.766880,5.517591,0.328772,-1.616822,-11.941534,4.284855,2.407115,1.451568,1.616426,20.340000,27.779999,29.099998,-58.409,6.134,-54.314,,walk
2025-10-25T21:47:43.519861,28631,207,-0.849942,-6.423943,4.613626,0.739516,3.245681,4.236609,-1.589458,-9.669623,0.377017,1.273960,1.450347,-0.816040,20.340000,27.779999,29.099998,-58.409,6.134,-54.314,,walk
2025-10-25T21:47:43.569370,28681,208,-0.849942,-6.423943,4.613626,0.739516,3.245681,4.236609,-1.589458,-9.669623,0.377017,1.273960,1.450347,-0.816040,20.340000,27.779999,29.099998,-58.409,6.134,-54.314,,walk
2025-10-25T21:47:43.620343,28732,209,-1.522712,-8.909123,2.173935,0.739516,3.245681,4.236609,-2.262228,-12.154804,-2.062674,1.273960,1.450347,-0.816040,21.840000,32.279999,21.420000,-44.599,9.428,-76.287,,walk
2025-10-25T21:47:43.669697,28781,210,-1.522712,-8.909123,2.173935,0.739516,3.245681,4.236609,-2.262228,-12.154804,-2.062674,1.273960,1.450347,-0.816040,21.840000,32.279999,21.420000,-44.599,9.428,-76.287,,walk
2025-10-25T21:47:43.720348,28832,211,-1.522712,-8.909123,2.173935,-0.232640,0.683048,0.594063,-1.290072,-9.592172,1.579872,0.942260,-0.226478,0.453949,21.840000,32.279999,21.420000,-44.599,9.428,-76.287,,walk
2025-10-25T21:47:43.769387,28881,212,-1.522712,-8.909123,2.173935,-0.232640,0.683048,0.594063,-1.290072,-9.592172,1.579872,0.942260,-0.226478,0.453949,21.840000,32.279999,21.420000,-44.599,9.428,-76.287,,walk
2025-10-25T21:47:43.819798,28931,213,-0.318429,-11.224317,-2.798822,-0.232640,0.683048,0.594063,-0.085789,-11.907365,-3.392884,0.942260,-0.226478,0.453949,22.859999,34.860001,15.120000,-13.581,1.577,-104.001,,walk
2025-10-25T21:47:43.869749,28981,214,-0.318429,-11.224317,-2.798822,1.320203,-1.900226,-5.357402,-1.638631,-9.324091,2.558580,-0.100487,-0.591165,-0.181351,22.859999,34.860001,15.120000,-13.581,1.577,-104.001,,walk
2025-10-25T21:47:43.918667,29030,215,-0.318429,-11.224317,-2.798822,1.320203,-1.900226,-5.357402,-1.638631,-9.324091,2.558580,-0.100487,-0.591165,-0.181351,22.859999,34.860001,15.120000,-13.581,1.577,-104.001,,walk
2025-10-25T21:47:43.971417,29083,216,0.028730,-12.268188,-0.181959,1.320203,-1.900226,-5.357402,-1.291472,-10.367963,5.175443,-0.100487,-0.591165,-0.181351,22.859999,34.860001,15.120000,-32.703,-0.134,-90.850,,walk
2025-10-25T21:47:44.019061,29130,217,0.028730,-12.268188,-0.181959,1.320203,-1.900226,-5.357402,-1.291472,-10.367963,5.175443,-0.100487,-0.591165,-0.181351,24.840000,30.059999,21.299999,-40.147,-0.134,-90.850,,walk
2025-10-25T21:47:44.068803,29180,218,0.028730,-12.268188,-0.181959,1.184764,-2.603959,1.016580,-1.156034,-9.664229,-1.198540,-1.734552,1.788766,-0.558865,24.840000,30.059999,21.299999,-40.147,-0.134,-90.850,,walk
2025-10-25T21:47:44.118890,29230,219,0.028730,-12.268188,-0.181959,1.184764,-2.603959,1.016580,-1.156034,-9.664229,-1.198540,-1.734552,1.788766,-0.558865,24.840000,30.059999,21.299999,-40.147,-0.134,-90.850,,walk
2025-10-25T21:47:44.168534,29280,220,2.458845,-9.155726,0.251391,1.184764,-2.603959,1.016580,1.274081,-6.551767,-0.765189,-1.734552,1.788766,-0.558865,24.840000,30.059999,21.299999,-56.429,-15.027,-88.427,,walk
2025-10-25T21:47:44.219351,29331,221,2.458845,-9.155726,0.251391,2.855318,-0.022560,3.800786,-0.396472,-9.133166,-3.549395,-0.331394,-0.651640,-0.472122,15.059999,22.439999,35.160000,-81.966,-15.027,-88.427,,walk
2025-10-25T21:47:44.269860,29381,222,2.458845,-9.155726,0.251391,2.855318,-0.022560,3.800786,-0.396472,-9.133166,-3.549395,-0.331394,-0.651640,-0.472122,15.059999,22.439999,35.160000,-81.966,-15.027,-88.427,,walk
2025-10-25T21:47:44.319566,29431,223,2.458845,-9.155726,0.251391,2.855318,-0.022560,3.800786,-0.396472,-9.133166,-3.549395,-0.331394,-0.651640,-0.472122,15.059999,22.439999,35.160000,-81.966,-15.027,-88.427,,walk
2025-10-25T21:47:44.369005,29480,224,-2.178724,-5.301062,-1.628057,2.855318,-0.022560,3.800786,-5.034041,-5.278502,-5.428843,-0.331394,-0.651640,-0.472122,15.059999,22.439999,35.160000,-35.867,21.449,-107.073,,walk
2025-10-25T21:47:44.418745,29530,225,-2.178724,-5.301062,-1.628057,-1.486611,4.267318,0.405948,-0.692112,-9.568379,-2.034005,-1.020450,-0.002902,-0.554589,17.279999,26.639999,31.080000,-26.677,21.449,-107.073,,walk
2025-10-25T21:47:44.469770,29581,226,-2.178724,-5.301062,-1.628057,-1.486611,4.267318,0.405948,-0.692112,-9.568379,-2.034005,-1.020450,-0.002902,-0.554589,17.279999,26.639999,31.080000,-26.677,21.449,-107.073,,walk
2025-10-25T21:47:44.519448,29631,227,-13.699922,-18.828600,7.293037,-1.486611,4.267318,0.405948,-12.213310,-23.095918,6.887089,-1.020450,-0.002902,-0.554589,17.279999,26.639999,31.080000,-37.721,34.157,-68.827,,walk
2025-10-25T21:47:44.570668,29682,228,-13.699922,-18.828600,7.293037,-1.486611,4.267318,0.405948,-12.213310,-23.095918,6.887089,-1.020450,-0.002902,-0.554589,17.279999,26.639999,31.080000,-37.721,34.157,-68.827,,walk
2025-10-25T21:47:44.619883,29731,229,-13.699922,-18.828600,7.293037,-12.781925,-9.104759,8.172913,-0.917996,-9.723841,-0.879875,0.577573,-0.480598,0.237092,17.279999,29.879999,27.959999,-37.862,34.157,-68.827,,walk
2025-10-25T21:47:44.669863,29781,230,-13.699922,-18.828600,7.293037,-12.781925,-9.104759,8.172913,-0.917996,-9.723841,-0.879875,0.577573,-0.480598,0.237092,17.279999,29.879999,27.959999,-37.862,34.157,-68.827,,walk
2025-10-25T21:47:44.719783,29831,231,5.389647,-10.726323,-10.446201,-12.781925,-9.104759,8.172913,18.171573,-1.621564,-18.619114,0.577573,-0.480598,0.237092,17.279999,29.879999,27.959999,-17.898,-19.797,-134.242,,walk
2025-10-25T21:47:44.768858,29880,232,5.389647,-10.726323,-10.446201,6.584268,-1.027082,-11.263330,-1.194620,-9.699241,0.817129,0.498161,0.487623,-0.374384,17.279999,29.879999,27.959999,-17.898,-19.797,-134.242,,walk
2025-10-25T21:47:44.819518,29931,233,5.389647,-10.726323,-10.446201,6.584268,-1.027082,-11.263330,-1.194620,-9.699241,0.817129,0.498161,0.487623,-0.374384,18.959999,33.419998,21.000000,23.036,-19.797,-134.242,,walk
2025-10-25T21:47:44.869527,29981,234,1.783680,-9.311350,0.797269,6.584268,-1.027082,-11.263330,-4.800587,-8.284267,12.060600,0.498161,0.487623,-0.374384,18.959999,33.419998,21.000000,-61.407,-10.806,-85.106,,walk
2025-10-25T21:47:44.919748,30031,235,1.783680,-9.311350,0.797269,6.584268,-1.027082,-11.263330,-4.800587,-8.284267,12.060600,0.498161,0.487623,-0.374384,18.959999,33.419998,21.000000,-61.407,-10.806,-85.106,,walk
2025-10-25T21:47:44.969023,30080,236,1.783680,-9.311350,0.797269,3.263976,0.143157,-1.345409,-1.480295,-9.454507,2.142678,1.069320,-0.776868,0.532140,18.959999,33.419998,21.000000,-61.407,-10.806,-85.106,,walk
2025-10-25T21:47:45.020070,30131,237,1.783680,-9.311350,0.797269,3.263976,0.143157,-1.345409,-1.480295,-9.454507,2.142678,1.069320,-0.776868,0.532140,21.539999,36.299999,14.280000,-48.780,-10.806,-85.106,,walk
2025-10-25T21:47:45.069758,30181,238,1.594538,-11.351210,2.667141,3.263976,0.143157,-1.345409,-1.669437,-11.494367,4.012549,1.069320,-0.776868,0.532140,21.539999,36.299999,14.280000,-52.087,-7.787,-76.777,,walk
2025-10-25T21:47:45.119599,30231,239,1.594538,-11.351210,2.667141,3.270346,-1.977950,0.321106,-1.675807,-9.373260,2.346035,-1.313055,-0.150731,0.134467,21.539999,36.299999,14.280000,-52.087,-7.787,-76.777,,walk
2025-10-25T21:47:45.169033,30280,240,1.594538,-11.351210,2.667141,3.270346,-1.977950,0.321106,-1.675807,-9.373260,2.346035,-1.313055,-0.150731,0.134467,21.539999,36.299999,14.280000,-52.087,-7.787,-76.777,,walk
2025-10-25T21:47:45.219542,30331,241,1.594538,-11.351210,2.667141,3.270346,-1.977950,0.321106,-1.675807,-9.373260,2.346035,-1.313055,-0.150731,0.134467,24.180000,32.700001,18.719999,-53.287,-7.787,-76.777,,walk
2025-10-25T21:47:45.270519,30382,242,-6.981791,-11.332056,5.770325,3.270346,-1.977950,0.321106,-10.252137,-9.354106,5.449219,-1.313055,-0.150731,0.134467,24.180000,32.700001,18.719999,-32.295,28.768,-63.015,,walk
2025-10-25T21:47:45.319029,30430,243,-6.981791,-11.332056,5.770325,-5.807956,-1.752240,7.507912,-1.173835,-9.579816,-1.737587,-1.815797,0.770454,-0.273591,24.180000,32.700001,18.719999,-32.295,28.768,-63.015,,walk
2025-10-25T21:47:45.369382,30481,244,-6.981791,-11.332056,5.770325,-5.807956,-1.752240,7.507912,-1.173835,-9.579816,-1.737587,-1.815797,0.770454,-0.273591,24.180000,32.700001,18.719999,-32.295,28.768,-63.015,,walk
2025-10-25T21:47:45.419609,30531,245,-1.711854,-6.213253,-0.174777,-5.807956,-1.752240,7.507912,4.096102,-4.461012,-7.682689,-1.815797,0.770454,-0.273591,16.320000,22.680000,33.480000,-47.946,15.398,-91.611,,walk
2025-10-25T21:47:45.472606,30584,246,-1.711854,-6.213253,-0.174777,-5.807956,-1.752240,7.507912,4.096102,-4.461012,-7.682689,-1.815797,0.770454,-0.273591,16.320000,22.680000,33.480000,-47.946,15.398,-91.611,,walk
2025-10-25T21:47:45.519833,30631,247,-1.711854,-6.213253,-0.174777,-1.197300,2.815279,3.618746,-0.514554,-9.028531,-3.793522,-0.095600,-0.936915,-0.290695,16.320000,22.680000,33.480000,-47.946,15.398,-91.611,,walk
2025-10-25T21:47:45.569318,30681,248,-1.711854,-6.213253,-0.174777,-1.197300,2.815279,3.618746,-0.514554,-9.028531,-3.793522,-0.095600,-0.936915,-0.290695,16.320000,22.680000,33.480000,-47.946,15.398,-91.611,,walk
2025-10-25T21:47:45.619964,30731,249,-2.513912,-9.332897,-10.415076,-1.197300,2.815279,3.618746,-1.316612,-12.148176,-14.033822,-0.095600,-0.936915,-0.290695,19.080000,23.639999,32.040001,-2.778,10.191,-138.137,,walk
2025-10-25T21:47:45.688092,30799,250,-2.513912,-9.332897,-10.415076,-1.765019,0.072203,-7.740528,-0.748893,-9.405100,-2.674548,0.007636,-0.699899,-0.936991,19.080000,23.639999,32.040001,-2.778,10.191,-138.137,,walk
2025-10-25T21:47:45.718782,30830,251,-2.513912,-9.332897,-10.415076,-1.765019,0.072203,-7.740528,-0.748893,-9.405100,-2.674548,0.007636,-0.699899,-0.936991,19.080000,23.639999,32.040001,-2.778,10.191,-138.137,,walk
2025-10-25T21:47:45.769911,30881,252,-0.035913,-18.838177,-16.755222,-1.765019,0.072203,-7.740528,1.729106,-18.910379,-9.014694,0.007636,-0.699899,-0.936991,19.080000,23.639999,32.040001,-23.231,0.082,-131.651,,walk
2025-10-25T21:47:45.819729,30931,253,-0.035913,-18.838177,-16.755222,-1.765019,0.072203,-7.740528,1.729106,-18.910379,-9.014694,0.007636,-0.699899,-0.936991,17.400000,29.939999,27.719999,-2.614,0.082,-131.651,,walk
2025-10-25T21:47:45.869285,30981,254,-0.035913,-18.838177,-16.755222,1.170585,-9.129967,-16.073383,-1.206498,-9.708210,-0.681839,1.106582,0.046578,0.402026,17.400000,29.939999,27.719999,-2.614,0.082,-131.651,,walk
2025-10-25T21:47:45.920985,31032,255,-0.035913,-18.838177,-16.755222,1.170585,-9.129967,-16.073383,-1.206498,-9.708210,-0.681839,1.106582,0.046578,0.402026,17.400000,29.939999,27.719999,-2.614,0.082,-131.651,,walk
2025-10-25T21:47:45.968826,31080,256,-2.202666,-8.162133,-2.865860,1.170585,-9.129967,-16.073383,-3.373250,0.967834,13.207524,1.106582,0.046578,0.402026,17.400000,29.939999,27.719999,-25.639,14.285,-109.347,,walk
2025-10-25T21:47:46.018951,31130,257,-2.202666,-8.162133,-2.865860,-1.135067,1.525026,-3.956464,-1.067599,-9.687160,1.090605,0.316123,0.257327,0.148517,19.619999,34.439999,19.500000,-4.446,14.285,-109.347,,walk
2025-10-25T21:47:46.069399,31181,258,-2.202666,-8.162133,-2.865860,-1.135067,1.525026,-3.956464,-1.067599,-9.687160,1.090605,0.316123,0.257327,0.148517,19.619999,34.439999,19.500000,-4.446,14.285,-109.347,,walk
2025-10-25T21:47:46.120275,31231,259,-2.202666,-8.162133,-2.865860,-1.135067,1.525026,-3.956464,-1.067599,-9.687160,1.090605,0.316123,0.257327,0.148517,19.619999,34.439999,19.500000,-4.446,14.285,-109.347,,walk
2025-10-25T21:47:46.169526,31281,260,0.634463,-9.921871,0.943315,-1.135067,1.525026,-3.956464,1.769530,-11.446898,4.899780,0.316123,0.257327,0.148517,19.619999,34.439999,19.500000,-52.466,-3.642,-84.569,,walk
2025-10-25T21:47:46.219931,31331,261,0.634463,-9.921871,0.943315,2.154419,-0.649308,-1.863732,-1.519955,-9.272563,2.807047,-0.326507,0.391106,0.293292,22.379999,36.000000,10.740000,-35.585,-3.642,-84.569,,walk
2025-10-25T21:47:46.269515,31381,262,0.634463,-9.921871,0.943315,2.154419,-0.649308,-1.863732,-1.519955,-9.272563,2.807047,-0.326507,0.391106,0.293292,22.379999,36.000000,10.740000,-35.585,-3.642,-84.569,,walk
2025-10-25T21:47:46.319342,31431,263,0.526724,-13.766959,-3.916914,2.154419,-0.649308,-1.863732,-1.627694,-13.117651,-2.053182,-0.326507,0.391106,0.293292,22.379999,36.000000,10.740000,-3.290,-2.108,-105.882,,walk
2025-10-25T21:47:46.369717,31481,264,0.526724,-13.766959,-3.916914,2.154419,-0.649308,-1.863732,-1.627694,-13.117651,-2.053182,-0.326507,0.391106,0.293292,22.379999,36.000000,10.740000,-3.290,-2.108,-105.882,,walk
2025-10-25T21:47:46.419442,31531,265,0.526724,-13.766959,-3.916914,1.707819,-4.031900,-3.978975,-1.181095,-9.735059,0.062061,-3.853033,0.811382,-0.333456,22.500000,31.859999,20.100000,-27.659,-2.108,-105.882,,walk
2025-10-25T21:47:46.469618,31581,266,0.526724,-13.766959,-3.916914,1.707819,-4.031900,-3.978975,-1.181095,-9.735059,0.062061,-3.853033,0.811382,-0.333456,22.500000,31.859999,20.100000,-27.659,-2.108,-105.882,,walk
2025-10-25T21:47:46.519966,31631,267,0.189142,-10.738294,-1.022324,1.707819,-4.031900,-3.978975,-1.518678,-6.706393,2.956651,-3.853033,0.811382,-0.333456,22.500000,31.859999,20.100000,-38.126,-1.005,-95.438,,walk
2025-10-25T21:47:46.569324,31681,268,0.189142,-10.738294,-1.022324,0.525618,-1.622278,2.576967,-0.336476,-9.116015,-3.599292,-1.591609,-1.425607,-1.022512,22.500000,31.859999,20.100000,-38.126,-1.005,-95.438,,walk
2025-10-25T21:47:46.620073,31731,269,0.189142,-10.738294,-1.022324,0.525618,-1.622278,2.576967,-0.336476,-9.116015,-3.599292,-1.591609,-1.425607,-1.022512,15.780000,22.619999,33.899998,-64.529,-1.005,-95.438,,walk
2025-10-25T21:47:46.669322,31781,270,-1.637634,-5.298667,-0.172383,0.525618,-1.622278,2.576967,-2.163252,-3.676389,-2.749350,-1.591609,-1.425607,-1.022512,15.780000,22.619999,33.899998,-47.090,17.166,-91.863,,walk
2025-10-25T21:47:46.719943,31831,271,-1.637634,-5.298667,-0.172383,0.525618,-1.622278,2.576967,-2.163252,-3.676389,-2.749350,-1.591609,-1.425607,-1.022512,15.780000,22.619999,33.899998,-47.090,17.166,-91.863,,walk
2025-10-25T21:47:46.769343,31881,272,-1.637634,-5.298667,-0.172383,-1.244547,3.957644,3.042602,-0.393087,-9.256311,-3.214985,2.258063,-0.280845,0.205938,15.780000,22.619999,33.899998,-47.090,17.166,-91.863,,walk
2025-10-25T21:47:46.820612,31932,273,-1.637634,-5.298667,-0.172383,-1.244547,3.957644,3.042602,-0.393087,-9.256311,-3.214985,2.258063,-0.280845,0.205938,19.020000,27.719999,28.379999,-37.795,17.166,-91.863,,walk
2025-10-25T21:47:46.868571,31980,274,-0.916979,-1.754950,4.668694,-1.244547,3.957644,3.042602,0.327568,-5.712594,1.626091,2.258063,-0.280845,0.205938,19.020000,27.719999,28.379999,-55.402,10.418,-20.601,,walk
2025-10-25T21:47:46.919809,32031,275,-0.916979,-1.754950,4.668694,-0.328238,7.928892,6.099368,-0.588741,-9.683842,-1.430675,0.505491,1.592678,2.159485,19.020000,27.719999,28.379999,-55.402,10.418,-20.601,,walk
2025-10-25T21:47:46.969461,32081,276,-0.916979,-1.754950,4.668694,-0.328238,7.928892,6.099368,-0.588741,-9.683842,-1.430675,0.505491,1.592678,2.159485,19.020000,27.719999,28.379999,-55.402,10.418,-20.601,,walk
2025-10-25T21:47:47.023511,32135,277,-0.916979,-1.754950,4.668694,-0.328238,7.928892,6.099368,-0.588741,-9.683842,-1.430675,0.505491,1.592678,2.159485,20.400000,30.179998,25.740000,-55.422,10.418,-20.601,,walk
2025-10-25T21:47:47.069592,32181,278,0.725443,-9.483732,4.041412,-0.328238,7.928892,6.099368,1.053681,-17.412624,-2.057956,0.505491,1.592678,2.159485,20.400000,30.179998,25.740000,-63.239,-4.025,-66.919,,walk
2025-10-25T21:47:47.119729,32231,279,0.725443,-9.483732,4.041412,2.005971,0.236700,3.832568,-1.280528,-9.720432,0.208845,1.039998,1.353219,-0.982195,20.400000,30.179998,25.740000,-63.239,-4.025,-66.919,,walk
2025-10-25T21:47:47.168499,32280,280,0.725443,-9.483732,4.041412,2.005971,0.236700,3.832568,-1.280528,-9.720432,0.208845,1.039998,1.353219,-0.982195,20.400000,30.179998,25.740000,-63.239,-4.025,-66.919,,walk
2025-10-25T21:47:47.218892,32330,281,-1.118092,-8.312967,1.738190,2.005971,0.236700,3.832568,-3.124064,-8.549667,-2.094377,1.039998,1.353219,-0.982195,19.559999,34.500000,18.900000,-46.336,7.500,-78.190,,walk
2025-10-25T21:47:47.269095,32380,282,-1.118092,-8.312967,1.738190,2.005971,0.236700,3.832568,-3.124064,-8.549667,-2.094377,1.039998,1.353219,-0.982195,19.559999,34.500000,18.900000,-46.336,7.500,-78.190,,walk
2025-10-25T21:47:47.319513,32431,283,-1.118092,-8.312967,1.738190,0.042420,1.287940,0.111545,-1.160512,-9.600907,1.626646,1.125519,-0.486707,0.513203,19.559999,34.500000,18.900000,-46.336,7.500,-78.190,,walk
2025-10-25T21:47:47.369529,32481,284,-1.118092,-8.312967,1.738190,0.042420,1.287940,0.111545,-1.160512,-9.600907,1.626646,1.125519,-0.486707,0.513203,19.559999,34.500000,18.900000,-46.336,7.500,-78.190,,walk
2025-10-25T21:47:47.419736,32531,285,0.823605,-10.613795,1.316811,0.042420,1.287940,0.111545,0.781185,-11.901735,1.205266,1.125519,-0.486707,0.513203,22.980000,36.119999,10.260000,-36.465,-4.403,-82.928,,walk
2025-10-25T21:47:47.469384,32581,286,0.823605,-10.613795,1.316811,2.116495,-1.232610,-1.231130,-1.292889,-9.381186,2.547941,-0.752891,0.162643,-0.072006,22.980000,36.119999,10.260000,-36.465,-4.403,-82.928,,walk
2025-10-25T21:47:47.519062,32630,287,0.823605,-10.613795,1.316811,2.116495,-1.232610,-1.231130,-1.292889,-9.381186,2.547941,-0.752891,0.162643,-0.072006,22.980000,36.119999,10.260000,-36.465,-4.403,-82.928,,walk
2025-10-25T21:47:47.568750,32680,288,-3.648763,-14.252982,9.931448,2.116495,-1.232610,-1.231130,-5.765258,-13.020372,11.162578,-0.752891,0.162643,-0.072006,22.980000,36.119999,10.260000,-45.478,11.862,-55.131,,walk
2025-10-25T21:47:47.619746,32731,289,-3.648763,-14.252982,9.931448,2.116495,-1.232610,-1.231130,-5.765258,-13.020372,11.162578,-0.752891,0.162643,-0.072006,23.279999,30.959999,21.840000,-48.943,11.862,-55.131,,walk
2025-10-25T21:47:47.669614,32781,290,-3.648763,-14.252982,9.931448,-2.986940,-4.676050,11.935026,-0.661824,-9.576932,-2.003578,-2.435825,0.406989,-0.023747,23.279999,30.959999,21.840000,-48.943,11.862,-55.131,,walk
2025-10-25T21:47:47.720009,32831,291,-3.648763,-14.252982,9.931448,-2.986940,-4.676050,11.935026,-0.661824,-9.576932,-2.003578,-2.435825,0.406989,-0.023747,23.279999,30.959999,21.840000,-48.943,11.862,-55.131,,walk
2025-10-25T21:47:47.770085,32881,292,-2.442086,-4.319140,0.347159,-2.986940,-4.676050,11.935026,0.544854,0.356910,-11.587867,-2.435825,0.406989,-0.023747,23.279999,30.959999,21.840000,-17.964,29.405,-85.405,,walk
2025-10-25T21:47:47.819400,32931,293,-2.442086,-4.319140,0.347159,-1.600591,4.332119,4.887793,-0.841494,-8.651258,-4.540633,0.365603,-0.165392,0.067882,19.799999,20.279999,32.160000,-31.012,29.405,-85.405,,walk
2025-10-25T21:47:47.869679,32981,294,-2.442086,-4.319140,0.347159,-1.600591,4.332119,4.887793,-0.841494,-8.651258,-4.540633,0.365603,-0.165392,0.067882,19.799999,20.279999,32.160000,-31.012,29.405,-85.405,,walk
2025-10-25T21:47:47.923741,33035,295,-2.442086,-4.319140,0.347159,-1.600591,4.332119,4.887793,-0.841494,-8.651258,-4.540633,0.365603,-0.165392,0.067882,19.799999,20.279999,32.160000,-31.012,29.405,-85.405,,walk
2025-10-25T21:47:47.969599,33081,296,-3.272874,-10.707170,-13.640066,-1.600591,4.332119,4.887793,-1.672282,-15.039288,-18.527859,0.365603,-0.165392,0.067882,19.799999,20.279999,32.160000,-2.913,10.688,-141.869,,walk
2025-10-25T21:47:48.019451,33131,297,-3.272874,-10.707170,-13.640066,-2.028890,-1.472989,-10.581922,-1.243984,-9.234180,-3.058145,-0.096211,-1.280221,-0.472733,21.779999,24.420000,30.119999,7.238,10.688,-141.869,,walk
2025-10-25T21:47:48.070120,33181,298,-3.272874,-10.707170,-13.640066,-2.028890,-1.472989,-10.581922,-1.243984,-9.234180,-3.058145,-0.096211,-1.280221,-0.472733,21.779999,24.420000,30.119999,7.238,10.688,-141.869,,walk
2025-10-25T21:47:48.119456,33231,299,-0.773327,-12.359168,-2.549825,-2.028890,-1.472989,-10.581922,1.255562,-10.886179,8.032097,-0.096211,-1.280221,-0.472733,21.779999,24.420000,30.119999,-44.538,3.507,-101.657,,walk
2025-10-25T21:47:48.169328,33281,300,-0.773327,-12.359168,-2.549825,0.728801,-2.718894,-1.560608,-1.502128,-9.640274,-0.989217,1.303892,0.450971,0.044670,21.779999,24.420000,30.119999,-44.538,3.507,-101.657,,walk
2025-10-25T21:47:48.218849,33330,301,-0.773327,-12.359168,-2.549825,0.728801,-2.718894,-1.560608,-1.502128,-9.640274,-0.989217,1.303892,0.450971,0.044670,22.320000,29.099998,25.019999,-35.911,3.507,-101.657,,walk
2025-10-25T21:47:48.269394,33381,302,-0.773327,-12.359168,-2.549825,0.728801,-2.718894,-1.560608,-1.502128,-9.640274,-0.989217,1.303892,0.450971,0.044670,22.320000,29.099998,25.019999,-35.911,3.507,-101.657,,walk
2025-10-25T21:47:48.319919,33431,303,-5.787085,-7.661745,-3.270479,0.728801,-2.718894,-1.560608,-6.515885,-4.942851,-1.709872,1.303892,0.450971,0.044670,22.320000,29.099998,25.019999,7.405,34.787,-113.116,,walk
2025-10-25T21:47:48.369421,33481,304,-5.787085,-7.661745,-3.270479,-4.742537,2.028050,-4.359940,-1.044548,-9.689795,1.089461,0.812756,0.851088,0.338496,22.320000,29.099998,25.019999,7.405,34.787,-113.116,,walk
2025-10-25T21:47:48.419765,33531,305,-5.787085,-7.661745,-3.270479,-4.742537,2.028050,-4.359940,-1.044548,-9.689795,1.089461,0.812756,0.851088,0.338496,19.439999,34.799999,18.059999,21.261,34.787,-113.116,,walk
2025-10-25T21:47:48.470445,33582,306,0.225055,-9.335292,0.205901,-4.742537,2.028050,-4.359940,4.967592,-11.363342,4.565841,0.812756,0.851088,0.338496,19.439999,34.799999,18.059999,-45.429,-1.381,-88.736,,walk
2025-10-25T21:47:48.519834,33631,307,0.225055,-9.335292,0.205901,-4.742537,2.028050,-4.359940,4.967592,-11.363342,4.565841,0.812756,0.851088,0.338496,19.439999,34.799999,18.059999,-45.429,-1.381,-88.736,,walk
2025-10-25T21:47:48.569757,33681,308,0.225055,-9.335292,0.205901,2.092423,-0.069670,-2.407774,-1.867368,-9.265622,2.613675,0.235489,0.022144,-0.087277,19.439999,34.799999,18.059999,-45.429,-1.381,-88.736,,walk
2025-10-25T21:47:48.619431,33731,309,0.225055,-9.335292,0.205901,2.092423,-0.069670,-2.407774,-1.867368,-9.265622,2.613675,0.235489,0.022144,-0.087277,21.420000,35.759998,13.500000,-35.056,-1.381,-88.736,,walk
2025-10-25T21:47:48.669774,33781,310,1.335965,-16.024990,-3.576937,2.092423,-0.069670,-2.407774,-0.756459,-15.955320,-1.169163,0.235489,0.022144,-0.087277,21.420000,35.759998,13.500000,-19.160,-4.652,-102.583,,walk
2025-10-25T21:47:48.719548,33831,311,1.335965,-16.024990,-3.576937,2.626638,-6.308058,-3.284576,-1.290673,-9.716932,-0.292361,-2.054034,2.592054,-0.277867,21.420000,35.759998,13.500000,-19.160,-4.652,-102.583,,walk
2025-10-25T21:47:48.769781,33881,312,1.335965,-16.024990,-3.576937,2.626638,-6.308058,-3.284576,-1.290673,-9.716932,-0.292361,-2.054034,2.592054,-0.277867,21.420000,35.759998,13.500000,-19.160,-4.652,-102.583,,walk
2025-10-25T21:47:48.820176,33931,313,1.335965,-16.024990,-3.576937,2.626638,-6.308058,-3.284576,-1.290673,-9.716932,-0.292361,-2.054034,2.592054,-0.277867,19.439999,26.939999,29.340000,-54.930,-4.652,-102.583,,walk
2025-10-25T21:47:48.869204,33980,314,-1.934515,-8.083124,1.853112,2.626638,-6.308058,-3.284576,-4.561153,-1.775066,5.137688,-2.054034,2.592054,-0.277867,19.439999,26.939999,29.340000,-49.115,13.131,-77.088,,walk
2025-10-25T21:47:48.919857,34031,315,-1.934515,-8.083124,1.853112,-1.144103,1.071542,5.279083,-0.790412,-9.154666,-3.425971,-1.360702,-0.981508,-0.814818,19.439999,26.939999,29.340000,-49.115,13.131,-77.088,,walk
2025-10-25T21:47:48.969800,34081,316,-1.934515,-8.083124,1.853112,-1.144103,1.071542,5.279083,-0.790412,-9.154666,-3.425971,-1.360702,-0.981508,-0.814818,19.439999,26.939999,29.340000,-49.115,13.131,-77.088,,walk
2025-10-25T21:47:49.019511,34131,317,-2.466028,-4.888960,0.471658,-1.144103,1.071542,5.279083,-1.321925,-5.960502,-4.807425,-1.360702,-0.981508,-0.814818,17.400000,20.100000,33.239998,-37.913,26.660,-84.489,,walk
2025-10-25T21:47:49.069595,34181,318,-2.466028,-4.888960,0.471658,-1.144103,1.071542,5.279083,-1.321925,-5.960502,-4.807425,-1.360702,-0.981508,-0.814818,17.400000,20.100000,33.239998,-37.913,26.660,-84.489,,walk
2025-10-25T21:47:49.119926,34231,319,-2.466028,-4.888960,0.471658,-1.640766,4.476480,3.260508,-0.825261,-9.365439,-2.788850,1.512808,0.446084,0.794812,17.400000,20.100000,33.239998,-37.913,26.660,-84.489,,walk
2025-10-25T21:47:49.169565,34281,320,-2.466028,-4.888960,0.471658,-1.640766,4.476480,3.260508,-0.825261,-9.365439,-2.788850,1.512808,0.446084,0.794812,17.400000,20.100000,33.239998,-37.913,26.660,-84.489,,walk
2025-10-25T21:47:49.219043,34330,321,-5.064036,-8.214806,4.122815,-1.640766,4.476480,3.260508,-3.423270,-12.691285,0.862308,1.512808,0.446084,0.794812,21.059999,24.480000,28.799999,-37.079,28.853,-63.349,,walk
2025-10-25T21:47:49.272268,34383,322,-5.064036,-8.214806,4.122815,-4.029157,1.314664,6.193573,-1.034879,-9.529469,-2.070758,0.043677,-1.060309,0.624991,21.059999,24.480000,28.799999,-37.079,28.853,-63.349,,walk
2025-10-25T21:47:49.319818,34431,323,-5.064036,-8.214806,4.122815,-4.029157,1.314664,6.193573,-1.034879,-9.529469,-2.070758,0.043677,-1.060309,0.624991,21.059999,24.480000,28.799999,-37.079,28.853,-63.349,,walk
2025-10-25T21:47:49.368837,34480,324,4.469975,-12.146085,-7.034464,-4.029157,1.314664,6.193573,8.499132,-13.460749,-13.228037,0.043677,-1.060309,0.624991,21.059999,24.480000,28.799999,-56.336,-17.665,-120.077,,walk
2025-10-25T21:47:49.419790,34531,325,4.469975,-12.146085,-7.034464,-4.029157,1.314664,6.193573,8.499132,-13.460749,-13.228037,0.043677,-1.060309,0.624991,23.760000,28.379999,21.660000,-31.577,-17.665,-120.077,,walk
2025-10-25T21:47:49.469463,34581,326,4.469975,-12.146085,-7.034464,5.511412,-2.408258,-7.544459,-1.041437,-9.737826,0.509995,1.414459,1.180955,-0.801990,23.760000,28.379999,21.660000,-31.577,-17.665,-120.077,,walk
2025-10-25T21:47:49.519794,34631,327,4.469975,-12.146085,-7.034464,5.511412,-2.408258,-7.544459,-1.041437,-9.737826,0.509995,1.414459,1.180955,-0.801990,23.760000,28.379999,21.660000,-31.577,-17.665,-120.077,,walk
2025-10-25T21:47:49.569636,34681,328,2.039860,-9.131784,1.003170,5.511412,-2.408258,-7.544459,-3.471552,-6.723526,8.547630,1.414459,1.180955,-0.801990,23.760000,28.379999,21.660000,-57.676,-12.519,-83.731,,walk
2025-10-25T21:47:49.619840,34731,329,2.039860,-9.131784,1.003170,3.408618,0.342512,-1.126234,-1.368759,-9.474297,2.129404,1.005790,-0.181274,0.300011,21.480000,33.059998,14.700000,-51.683,-12.519,-83.731,,walk
2025-10-25T21:47:49.669844,34781,330,2.039860,-9.131784,1.003170,3.408618,0.342512,-1.126234,-1.368759,-9.474297,2.129404,1.005790,-0.181274,0.300011,21.480000,33.059998,14.700000,-51.683,-12.519,-83.731,,walk
2025-10-25T21:47:49.722823,34834,331,1.295263,-11.700763,-1.130063,3.408618,0.342512,-1.126234,-2.113355,-12.043275,-0.003829,1.005790,-0.181274,0.300011,21.480000,33.059998,14.700000,-34.775,-6.288,-95.517,,walk
2025-10-25T21:47:49.769745,34881,332,1.295263,-11.700763,-1.130063,3.408618,0.342512,-1.126234,-2.113355,-12.043275,-0.003829,1.005790,-0.181274,0.300011,21.480000,33.059998,14.700000,-34.775,-6.288,-95.517,,walk
2025-10-25T21:47:49.819474,34931,333,1.295263,-11.700763,-1.130063,2.849443,-2.294083,-3.425524,-1.554180,-9.406680,2.295461,-1.418124,-1.108568,0.133856,22.740000,34.200001,14.099999,-31.966,-6.288,-95.517,,walk
2025-10-25T21:47:49.869755,34981,334,1.295263,-11.700763,-1.130063,2.849443,-2.294083,-3.425524,-1.554180,-9.406680,2.295461,-1.418124,-1.108568,0.133856,22.740000,34.200001,14.099999,-31.966,-6.288,-95.517,,walk
2025-10-25T21:47:49.919742,35031,335,-8.107066,-14.267347,3.433285,2.849443,-2.294083,-3.425524,-10.956510,-11.973265,6.858809,-1.418124,-1.108568,0.133856,22.740000,34.200001,14.099999,-19.207,28.919,-76.470,,walk
2025-10-25T21:47:49.969924,35081,336,-8.107066,-14.267347,3.433285,-7.301000,-4.765072,5.719499,-0.806066,-9.502275,-2.286214,-1.911092,0.486401,-0.305967,22.740000,34.200001,14.099999,-19.207,28.919,-76.470,,walk
2025-10-25T21:47:50.020615,35132,337,-8.107066,-14.267347,3.433285,-7.301000,-4.765072,5.719499,-0.806066,-9.502275,-2.286214,-1.911092,0.486401,-0.305967,19.320000,23.580000,31.799999,-36.043,28.919,-76.470,,walk
2025-10-25T21:47:50.069968,35181,338,-8.107066,-14.267347,3.433285,-7.301000,-4.765072,5.719499,-0.806066,-9.502275,-2.286214,-1.911092,0.486401,-0.305967,19.320000,23.580000,31.799999,-36.043,28.919,-76.470,,walk
2025-10-25T21:47:50.119020,35230,339,-1.168370,-5.456685,0.083797,-7.301000,-4.765072,5.719499,6.132630,-0.691613,-5.635702,-1.911092,0.486401,-0.305967,19.320000,23.580000,31.799999,-47.012,12.084,-89.120,,walk
2025-10-25T21:47:50.168745,35280,340,-1.168370,-5.456685,0.083797,-0.424816,3.421900,4.181089,-0.743554,-8.878585,-4.097292,0.517708,-0.767705,-0.150196,19.320000,23.580000,31.799999,-47.012,12.084,-89.120,,walk
2025-10-25T21:47:50.219247,35330,341,-1.168370,-5.456685,0.083797,-0.424816,3.421900,4.181089,-0.743554,-8.878585,-4.097292,0.517708,-0.767705,-0.150196,22.559999,17.879999,33.059998,-43.886,12.084,-89.120,,walk
2025-10-25T21:47:50.269097,35380,342,3.505111,-20.736780,-21.797411,-0.424816,3.421900,4.181089,3.929927,-24.158680,-25.978500,0.517708,-0.767705,-0.150196,22.559999,17.879999,33.059998,-31.705,-6.645,-136.428,,walk
2025-10-25T21:47:50.318935,35430,343,3.505111,-20.736780,-21.797411,-0.424816,3.421900,4.181089,3.929927,-24.158680,-25.978500,0.517708,-0.767705,-0.150196,22.559999,17.879999,33.059998,-31.705,-6.645,-136.428,,walk
2025-10-25T21:47:50.369171,35480,344,3.505111,-20.736780,-21.797411,4.571992,-11.575304,-18.465864,-1.066881,-9.161476,-3.331547,-0.053451,-1.530065,-0.206396,22.559999,17.879999,33.059998,-31.705,-6.645,-136.428,,walk
2025-10-25T21:47:50.419613,35531,345,3.505111,-20.736780,-21.797411,4.571992,-11.575304,-18.465864,-1.066881,-9.161476,-3.331547,-0.053451,-1.530065,-0.206396,27.119999,21.240000,27.539999,-13.334,-6.645,-136.428,,walk
2025-10-25T21:47:50.469636,35581,346,-2.157176,-4.218584,7.012916,4.571992,-11.575304,-18.465864,-6.729168,7.356720,25.478780,-0.053451,-1.530065,-0.206396,27.119999,21.240000,27.539999,-40.472,14.766,-31.029,,walk
2025-10-25T21:47:50.519331,35631,347,-2.157176,-4.218584,7.012916,-1.021776,5.408096,8.498793,-1.135400,-9.626679,-1.485877,1.816408,-0.260076,0.375148,27.119999,21.240000,27.539999,-40.472,14.766,-31.029,,walk
2025-10-25T21:47:50.569097,35680,348,-2.157176,-4.218584,7.012916,-1.021776,5.408096,8.498793,-1.135400,-9.626679,-1.485877,1.816408,-0.260076,0.375148,27.119999,21.240000,27.539999,-40.472,14.766,-31.029,,walk
2025-10-25T21:47:50.618592,35730,349,-2.865860,-7.156568,-0.660800,-1.021776,5.408096,8.498793,-1.844083,-12.564664,-9.159592,1.816408,-0.260076,0.375148,26.039999,27.420000,23.879999,-16.783,21.740,-95.275,,walk
2025-10-25T21:47:50.670137,35781,350,-2.865860,-7.156568,-0.660800,-1.021776,5.408096,8.498793,-1.844083,-12.564664,-9.159592,1.816408,-0.260076,0.375148,26.039999,27.420000,23.879999,-16.783,21.740,-95.275,,walk
2025-10-25T21:47:50.719548,35831,351,-2.865860,-7.156568,-0.660800,-2.040379,2.537940,-1.887662,-0.825480,-9.694508,1.226862,0.757778,0.304364,0.524810,26.039999,27.420000,23.879999,-16.783,21.740,-95.275,,walk
2025-10-25T21:47:50.769880,35881,352,-2.865860,-7.156568,-0.660800,-2.040379,2.537940,-1.887662,-0.825480,-9.694508,1.226862,0.757778,0.304364,0.524810,26.039999,27.420000,23.879999,-16.783,21.740,-95.275,,walk
2025-10-25T21:47:50.819469,35931,353,1.254562,-9.735124,-3.878607,-2.040379,2.537940,-1.887662,3.294941,-12.273063,-1.990945,0.757778,0.304364,0.524810,25.559999,31.679998,19.080000,-20.621,-6.827,-111.723,,walk
2025-10-25T21:47:50.869420,35981,354,1.254562,-9.735124,-3.878607,-2.040379,2.537940,-1.887662,3.294941,-12.273063,-1.990945,0.757778,0.304364,0.524810,25.559999,31.679998,19.080000,-20.621,-6.827,-111.723,,walk
2025-10-25T21:47:50.919445,36031,355,1.254562,-9.735124,-3.878607,2.660762,-0.371325,-6.430494,-1.406201,-9.363798,2.551888,-0.280693,0.026420,-0.039019,25.559999,31.679998,19.080000,-20.621,-6.827,-111.723,,walk
2025-10-25T21:47:50.970514,36082,356,1.254562,-9.735124,-3.878607,2.660762,-0.371325,-6.430494,-1.406201,-9.363798,2.551888,-0.280693,0.026420,-0.039019,25.559999,31.679998,19.080000,-20.621,-6.827,-111.723,,walk
2025-10-25T21:47:51.020084,36131,357,-1.592144,-14.693515,-5.856517,2.660762,-0.371325,-6.430494,-4.252906,-14.322189,0.573977,-0.280693,0.026420,-0.039019,28.019999,31.439999,19.559999,-7.316,5.748,-111.731,,walk
2025-10-25T21:47:51.069334,36181,358,-1.592144,-14.693515,-5.856517,-0.702961,-4.971393,-4.929257,-0.889183,-9.722122,-0.927259,-2.238516,0.990976,-0.173409,28.019999,31.439999,19.559999,-7.316,5.748,-111.731,,walk
2025-10-25T21:47:51.119784,36231,359,-1.592144,-14.693515,-5.856517,-0.702961,-4.971393,-4.929257,-0.889183,-9.722122,-0.927259,-2.238516,0.990976,-0.173409,28.019999,31.439999,19.559999,-7.316,5.748,-111.731,,walk
2025-10-25T21:47:51.169507,36281,360,1.575385,-7.589919,2.138022,-0.702961,-4.971393,-4.929257,2.278345,-2.618526,7.067280,-2.238516,0.990976,-0.173409,28.019999,31.439999,19.559999,-53.770,-11.298,-74.268,,walk
2025-10-25T21:47:51.219773,36331,361,1.575385,-7.589919,2.138022,-0.702961,-4.971393,-4.929257,2.278345,-2.618526,7.067280,-2.238516,0.990976,-0.173409,23.699999,16.859999,34.259998,-68.226,-11.298,-74.268,,walk
2025-10-25T21:47:51.269887,36381,362,1.575385,-7.589919,2.138022,2.305168,1.260119,6.299075,-0.729783,-8.850038,-4.161053,-0.824974,-0.788474,-0.323071,23.699999,16.859999,34.259998,-68.226,-11.298,-74.268,,walk
2025-10-25T21:47:51.319756,36431,363,1.575385,-7.589919,2.138022,2.305168,1.260119,6.299075,-0.729783,-8.850038,-4.161053,-0.824974,-0.788474,-0.323071,23.699999,16.859999,34.259998,-68.226,-11.298,-74.268,,walk
2025-10-25T21:47:51.370214,36481,364,-1.393425,-4.848258,-0.790087,2.305168,1.260119,6.299075,-3.698593,-6.108377,-7.089162,-0.824974,-0.788474,-0.323071,23.699999,16.859999,34.259998,-36.090,15.837,-99.256,,walk
2025-10-25T21:47:51.419846,36531,365,-1.393425,-4.848258,-0.790087,-0.531775,4.507659,2.019594,-0.861650,-9.355918,-2.809681,-1.935526,1.386817,-0.717079,26.219999,20.699999,29.699999,-28.117,15.837,-99.256,,walk
2025-10-25T21:47:51.469736,36581,366,-1.393425,-4.848258,-0.790087,-0.531775,4.507659,2.019594,-0.861650,-9.355918,-2.809681,-1.935526,1.386817,-0.717079,26.219999,20.699999,29.699999,-28.117,15.837,-99.256,,walk
2025-10-25T21:47:51.519434,36631,367,-4.551377,-18.869303,0.517148,-0.531775,4.507659,2.019594,-4.019602,-23.376962,-1.502446,-1.935526,1.386817,-0.717079,26.219999,20.699999,29.699999,-35.661,13.556,-88.430,,walk
2025-10-25T21:47:51.569790,36681,368,-4.551377,-18.869303,0.517148,-0.531775,4.507659,2.019594,-4.019602,-23.376962,-1.502446,-1.935526,1.386817,-0.717079,26.219999,20.699999,29.699999,-35.661,13.556,-88.430,,walk
2025-10-25T21:47:51.620357,36732,369,-4.551377,-18.869303,0.517148,-3.886972,-9.417975,3.047131,-0.664405,-9.451327,-2.529983,1.473101,0.087506,1.210200,24.420000,23.639999,30.660000,-38.637,13.556,-88.430,,walk
2025-10-25T21:47:51.669756,36781,370,-4.551377,-18.869303,0.517148,-3.886972,-9.417975,3.047131,-0.664405,-9.451327,-2.529983,1.473101,0.087506,1.210200,24.420000,23.639999,30.660000,-38.637,13.556,-88.430,,walk
2025-10-25T21:47:51.719896,36831,371,-0.430956,-8.978556,-4.031836,-3.886972,-9.417975,3.047131,3.456016,0.439420,-7.078966,1.473101,0.087506,1.210200,24.420000,23.639999,30.660000,-33.883,2.507,-114.183,,walk
2025-10-25T21:47:51.769486,36881,372,-0.430956,-8.978556,-4.031836,-3.886972,-9.417975,3.047131,3.456016,0.439420,-7.078966,1.473101,0.087506,1.210200,24.420000,23.639999,30.660000,-33.883,2.507,-114.183,,walk
2025-10-25T21:47:51.819695,36931,373,-0.430956,-8.978556,-4.031836,0.327983,0.792573,-4.377067,-0.758939,-9.771129,0.345231,1.528690,0.918894,-0.349339,25.439999,30.179998,21.840000,-13.900,2.507,-114.183,,walk
2025-10-25T21:47:51.869931,36981,374,-0.430956,-8.978556,-4.031836,0.327983,0.792573,-4.377067,-0.758939,-9.771129,0.345231,1.528690,0.918894,-0.349339,25.439999,30.179998,21.840000,-13.900,2.507,-114.183,,walk
2025-10-25T21:47:51.919852,37031,375,0.402226,-8.368034,2.600103,0.327983,0.792573,-4.377067,0.074243,-9.160607,6.977170,1.528690,0.918894,-0.349339,25.439999,30.179998,21.840000,-51.694,-2.628,-72.739,,walk
2025-10-25T21:47:51.969407,37081,376,0.402226,-8.368034,2.600103,1.820956,1.113076,0.534696,-1.418730,-9.481111,2.065407,0.414472,0.030085,0.169286,25.439999,30.179998,21.840000,-51.694,-2.628,-72.739,,walk
2025-10-25T21:47:52.018824,37130,377,0.098162,-10.970531,-0.079009,1.820956,1.113076,0.534696,-1.722794,-12.083608,-0.613705,0.414472,0.030085,0.169286,28.019999,31.619999,16.260000,-30.291,-0.513,-90.413,,walk
2025-10-25T21:47:52.069275,37180,378,0.098162,-10.970531,-0.079009,1.820956,1.113076,0.534696,-1.722794,-12.083608,-0.613705,0.414472,0.030085,0.169286,28.019999,31.619999,16.260000,-30.291,-0.513,-90.413,,walk
2025-10-25T21:47:52.118616,37230,379,0.098162,-10.970531,-0.079009,1.820956,1.113076,0.534696,-1.722794,-12.083608,-0.613705,0.414472,0.030085,0.169286,28.019999,31.619999,16.260000,-30.291,-0.513,-90.413,,walk
2025-10-25T21:47:52.172884,37284,380,-6.273108,-11.487679,6.237195,1.352912,-1.246204,0.102777,-7.626019,-10.241475,6.134417,-3.475518,0.893849,-0.347506,28.019999,31.619999,16.260000,-28.199,25.636,-61.500,,walk
2025-10-25T21:47:52.219453,37331,381,-6.273108,-11.487679,6.237195,1.352912,-1.246204,0.102777,-7.626019,-10.241475,6.134417,-3.475518,0.893849,-0.347506,25.019999,26.099998,29.400000,-36.637,25.636,-61.500,,walk
2025-10-25T21:47:52.269146,37380,382,-6.273108,-11.487679,6.237195,1.352912,-1.246204,0.102777,-7.626019,-10.241475,6.134417,-3.475518,0.893849,-0.347506,25.019999,26.099998,29.400000,-36.637,25.636,-61.500,,walk
2025-10-25T21:47:52.319378,37431,383,-6.273108,-11.487679,6.237195,-5.617993,-2.396000,9.854136,-0.655114,-9.091680,-3.616941,-0.974635,0.283594,-0.524657,25.019999,26.099998,29.400000,-36.637,25.636,-61.500,,walk
2025-10-25T21:47:52.369336,37481,384,-1.137246,-5.013758,-0.023942,-5.617993,-2.396000,9.854136,4.480748,-2.617758,-9.878078,-0.974635,0.283594,-0.524657,25.019999,26.099998,29.400000,-36.673,12.780,-90.274,,walk
2025-10-25T21:47:52.419392,37531,385,-1.137246,-5.013758,-0.023942,-5.617993,-2.396000,9.854136,4.480748,-2.617758,-9.878078,-0.974635,0.283594,-0.524657,21.180000,15.960000,37.799999,-47.890,12.780,-90.274,,walk
2025-10-25T21:47:52.469476,37581,386,-1.137246,-5.013758,-0.023942,-5.617993,-2.396000,9.854136,4.480748,-2.617758,-9.878078,-0.974635,0.283594,-0.524657,21.180000,15.960000,37.799999,-47.890,12.780,-90.274,,walk
2025-10-25T21:47:52.521962,37633,387,-1.137246,-5.013758,-0.023942,-0.445412,4.295832,2.979887,-0.691834,-9.309589,-3.003829,2.193923,-0.355982,0.100869,21.180000,15.960000,37.799999,-47.890,12.780,-90.274,,walk
2025-10-25T21:47:52.568998,37680,388,0.081403,-21.498137,-27.416901,-0.445412,4.295832,2.979887,0.526814,-25.793968,-30.396787,2.193923,-0.355982,0.100869,21.180000,15.960000,37.799999,-27.105,-0.134,-141.899,,walk
2025-10-25T21:47:52.618847,37730,389,0.081403,-21.498137,-27.416901,-0.445412,4.295832,2.979887,0.526814,-25.793968,-30.396787,2.193923,-0.355982,0.100869,24.420000,20.100000,33.360001,-11.161,-0.134,-141.899,,walk
2025-10-25T21:47:52.669768,37781,390,0.081403,-21.498137,-27.416901,0.474850,-12.203539,-24.314369,-0.393447,-9.294598,-3.102531,0.785878,1.432632,0.392863,24.420000,20.100000,33.360001,-11.161,-0.134,-141.899,,walk
2025-10-25T21:47:52.719648,37831,391,-2.877831,-6.414366,5.013758,0.474850,-12.203539,-24.314369,-3.352680,5.789173,29.328127,0.785878,1.432632,0.392863,24.420000,20.100000,33.360001,-42.005,19.468,-51.987,,walk
2025-10-25T21:47:52.769875,37881,392,-2.877831,-6.414366,5.013758,0.474850,-12.203539,-24.314369,-3.352680,5.789173,29.328127,0.785878,1.432632,0.392863,24.420000,20.100000,33.360001,-42.005,19.468,-51.987,,walk
2025-10-25T21:47:52.819695,37931,393,-2.877831,-6.414366,5.013758,0.474850,-12.203539,-24.314369,-3.352680,5.789173,29.328127,0.785878,1.432632,0.392863,26.340000,24.299999,31.559999,-41.695,19.468,-51.987,,walk
2025-10-25T21:47:52.869324,37981,394,-2.877831,-6.414366,5.013758,-1.705757,3.321006,5.151191,-1.172073,-9.735372,-0.137434,1.342376,-0.217926,-0.440968,26.340000,24.299999,31.559999,-41.695,19.468,-51.987,,walk
2025-10-25T21:47:52.919434,38031,395,-2.482787,-8.238748,-0.926556,-1.705757,3.321006,5.151191,-0.777030,-11.559753,-6.077747,1.342376,-0.217926,-0.440968,26.340000,24.299999,31.559999,-30.030,16.671,-96.417,,walk
2025-10-25T21:47:52.969210,38080,396,-2.482787,-8.238748,-0.926556,-1.705757,3.321006,5.151191,-0.777030,-11.559753,-6.077747,1.342376,-0.217926,-0.440968,26.340000,24.299999,31.559999,-30.030,16.671,-96.417,,walk
2025-10-25T21:47:53.020490,38132,397,-2.482787,-8.238748,-0.926556,-1.705757,3.321006,5.151191,-0.777030,-11.559753,-6.077747,1.342376,-0.217926,-0.440968,27.240000,30.480000,21.180000,-15.614,16.671,-96.417,,walk
2025-10-25T21:47:53.068455,38180,398,0.876278,-11.118972,-4.821922,-1.139726,1.309112,-2.716714,2.016004,-12.428083,-2.105209,1.542740,-0.855059,0.573068,27.240000,30.480000,21.180000,-19.452,-4.135,-113.445,,walk
2025-10-25T21:47:53.119809,38231,399,0.876278,-11.118972,-4.821922,-1.139726,1.309112,-2.716714,2.016004,-12.428083,-2.105209,1.542740,-0.855059,0.573068,27.240000,30.480000,21.180000,-19.452,-4.135,-113.445,,walk
2025-10-25T21:47:53.169683,38281,400,0.876278,-11.118972,-4.821922,-1.139726,1.309112,-2.716714,2.016004,-12.428083,-2.105209,1.542740,-0.855059,0.573068,27.240000,30.480000,21.180000,-19.452,-4.135,-113.445,,walk
2025-10-25T21:47:53.219334,38331,401,0.876278,-11.118972,-4.821922,2.228276,-1.630592,-6.898647,-1.351998,-9.488379,2.076725,-1.780978,-0.867887,-0.222889,28.980000,32.160000,16.980000,-9.556,-4.135,-113.445,,walk
2025-10-25T21:47:53.269335,38381,402,1.482011,-14.109330,-3.641581,2.228276,-1.630592,-6.898647,-0.746265,-12.478738,3.257066,-1.780978,-0.867887,-0.222889,28.980000,32.160000,16.980000,-22.371,-5.807,-104.472,,walk
2025-10-25T21:47:53.319975,38431,403,1.482011,-14.109330,-3.641581,2.228276,-1.630592,-6.898647,-0.746265,-12.478738,3.257066,-1.780978,-0.867887,-0.222889,28.980000,32.160000,16.980000,-22.371,-5.807,-104.472,,walk
2025-10-25T21:47:53.369679,38481,404,1.482011,-14.109330,-3.641581,2.228276,-1.630592,-6.898647,-0.746265,-12.478738,3.257066,-1.780978,-0.867887,-0.222889,28.980000,32.160000,16.980000,-22.371,-5.807,-104.472,,walk
2025-10-25T21:47:53.422731,38534,405,1.482011,-14.109330,-3.641581,2.389267,-4.642003,-1.250691,-0.907257,-9.467327,-2.390890,-2.142610,0.040470,-0.134925,29.160000,22.199999,29.459999,-44.621,-5.807,-104.472,,walk
2025-10-25T21:47:53.469388,38581,406,-2.937685,-8.267478,0.268151,2.389267,-4.642003,-1.250691,-5.326953,-3.625475,1.518842,-2.142610,0.040470,-0.134925,29.160000,22.199999,29.459999,-26.619,19.552,-88.142,,walk
2025-10-25T21:47:53.520267,38631,407,-2.937685,-8.267478,0.268151,2.389267,-4.642003,-1.250691,-5.326953,-3.625475,1.518842,-2.142610,0.040470,-0.134925,29.160000,22.199999,29.459999,-26.619,19.552,-88.142,,walk
2025-10-25T21:47:53.569535,38681,408,-2.937685,-8.267478,0.268151,-2.153986,0.497468,4.596103,-0.783699,-8.764946,-4.327952,0.287412,-0.665690,-0.161192,29.160000,22.199999,29.459999,-26.619,19.552,-88.142,,walk
2025-10-25T21:47:53.619070,38730,409,-1.266533,-4.039018,-0.146046,-2.153986,0.497468,4.596103,0.887454,-4.536486,-4.742149,0.287412,-0.665690,-0.161192,27.900000,14.759999,32.399998,-31.241,17.399,-92.071,,walk
2025-10-25T21:47:53.671459,38783,410,-1.266533,-4.039018,-0.146046,-2.153986,0.497468,4.596103,0.887454,-4.536486,-4.742149,0.287412,-0.665690,-0.161192,27.900000,14.759999,32.399998,-31.241,17.399,-92.071,,walk
2025-10-25T21:47:53.718678,38830,411,-1.266533,-4.039018,-0.146046,-2.153986,0.497468,4.596103,0.887454,-4.536486,-4.742149,0.287412,-0.665690,-0.161192,27.900000,14.759999,32.399998,-31.241,17.399,-92.071,,walk
2025-10-25T21:47:53.783572,38895,412,-1.266533,-4.039018,-0.146046,-0.139398,5.051445,3.355797,-1.127134,-9.090464,-3.501843,0.252593,-0.869719,-0.124540,27.900000,14.759999,32.399998,-31.241,17.399,-92.071,,walk
2025-10-25T21:47:53.818997,38930,413,-2.949656,-10.501268,5.095160,-0.139398,5.051445,3.355797,-2.810258,-15.552714,1.739364,0.252593,-0.869719,-0.124540,31.679998,17.940001,25.559999,-32.042,14.182,-64.118,,walk
2025-10-25T21:47:53.871474,38983,414,-2.949656,-10.501268,5.095160,-0.139398,5.051445,3.355797,-2.810258,-15.552714,1.739364,0.252593,-0.869719,-0.124540,31.679998,17.940001,25.559999,-32.042,14.182,-64.118,,walk
2025-10-25T21:47:53.919409,39031,415,-2.949656,-10.501268,5.095160,-0.139398,5.051445,3.355797,-2.810258,-15.552714,1.739364,0.252593,-0.869719,-0.124540,31.679998,17.940001,25.559999,-32.042,14.182,-64.118,,walk
2025-10-25T21:47:53.968514,39080,416,7.549217,-13.520356,-5.291485,-1.830729,-0.929866,6.913414,9.379946,-12.590490,-12.204899,2.052202,0.823599,1.257848,31.679998,17.940001,25.559999,-59.937,-27.472,-111.374,,walk
2025-10-25T21:47:54.018946,39130,417,7.549217,-13.520356,-5.291485,-1.830729,-0.929866,6.913414,9.379946,-12.590490,-12.204899,2.052202,0.823599,1.257848,30.959999,22.379999,25.439999,-58.980,-27.472,-111.374,,walk
2025-10-25T21:47:54.069596,39181,418,7.549217,-13.520356,-5.291485,-1.830729,-0.929866,6.913414,9.379946,-12.590490,-12.204899,2.052202,0.823599,1.257848,30.959999,22.379999,25.439999,-58.980,-27.472,-111.374,,walk
2025-10-25T21:47:54.120179,39231,419,7.549217,-13.520356,-5.291485,8.550924,-3.790940,-6.002302,-1.001707,-9.729416,0.710817,0.523206,-0.103084,0.135078,30.959999,22.379999,25.439999,-58.980,-27.472,-111.374,,walk
2025-10-25T21:47:54.168549,39280,420,-0.043096,-8.274660,2.056619,8.550924,-3.790940,-6.002302,-8.594020,-4.483720,8.058921,0.523206,-0.103084,0.135078,30.959999,22.379999,25.439999,-43.917,0.290,-76.042,,walk
2025-10-25T21:47:54.218651,39330,421,-0.043096,-8.274660,2.056619,8.550924,-3.790940,-6.002302,-8.594020,-4.483720,8.058921,0.523206,-0.103084,0.135078,31.500000,28.980000,17.160000,-36.636,0.290,-76.042,,walk
2025-10-25T21:47:54.270690,39382,422,-0.043096,-8.274660,2.056619,8.550924,-3.790940,-6.002302,-8.594020,-4.483720,8.058921,0.523206,-0.103084,0.135078,31.500000,28.980000,17.160000,-36.636,0.290,-76.042,,walk
2025-10-25T21:47:54.323548,39435,423,-0.043096,-8.274660,2.056619,1.275034,1.143273,-0.338224,-1.318130,-9.417933,2.394844,-0.462120,0.273820,0.089263,31.500000,28.980000,17.160000,-36.636,0.290,-76.042,,walk
2025-10-25T21:47:54.369306,39481,424,1.482011,-12.737453,0.782904,1.275034,1.143273,-0.338224,0.206977,-13.880726,1.121128,-0.462120,0.273820,0.089263,31.500000,28.980000,17.160000,-37.411,-6.624,-86.483,,walk
2025-10-25T21:47:54.419797,39531,425,1.482011,-12.737453,0.782904,1.275034,1.143273,-0.338224,0.206977,-13.880726,1.121128,-0.462120,0.273820,0.089263,32.219997,29.160000,13.860000,-32.325,-6.624,-86.483,,walk
2025-10-25T21:47:54.470947,39582,426,1.482011,-12.737453,0.782904,1.275034,1.143273,-0.338224,0.206977,-13.880726,1.121128,-0.462120,0.273820,0.089263,32.219997,29.160000,13.860000,-32.325,-6.624,-86.483,,walk
2025-10-25T21:47:54.519817,39631,427,-3.325546,-12.723087,1.944092,2.488228,-3.000303,1.370487,-5.813774,-9.722784,0.573605,-2.617863,1.534035,-0.009697,32.219997,29.160000,13.860000,-15.637,14.487,-81.312,,walk
2025-10-25T21:47:54.569323,39681,428,-3.325546,-12.723087,1.944092,2.488228,-3.000303,1.370487,-5.813774,-9.722784,0.573605,-2.617863,1.534035,-0.009697,32.219997,29.160000,13.860000,-15.637,14.487,-81.312,,walk
2025-10-25T21:47:54.619452,39731,429,-3.325546,-12.723087,1.944092,2.488228,-3.000303,1.370487,-5.813774,-9.722784,0.573605,-2.617863,1.534035,-0.009697,28.980000,21.900000,27.299999,-32.551,14.487,-81.312,,walk
2025-10-25T21:47:54.669945,39781,430,-3.325546,-12.723087,1.944092,-2.367879,-3.794431,5.885159,-0.957667,-8.928657,-3.941068,-1.094365,-0.099418,-0.451964,28.980000,21.900000,27.299999,-32.551,14.487,-81.312,,walk
2025-10-25T21:47:54.719778,39831,431,-1.874660,-5.408801,-0.646434,-2.367879,-3.794431,5.885159,0.493219,-1.614370,-6.531594,-1.094365,-0.099418,-0.451964,28.980000,21.900000,27.299999,-20.641,18.991,-96.815,,walk
2025-10-25T21:47:54.769474,39881,432,-1.874660,-5.408801,-0.646434,-2.367879,-3.794431,5.885159,0.493219,-1.614370,-6.531594,-1.094365,-0.099418,-0.451964,28.980000,21.900000,27.299999,-20.641,18.991,-96.815,,walk
2025-10-25T21:47:54.819809,39931,433,-1.874660,-5.408801,-0.646434,-2.367879,-3.794431,5.885159,0.493219,-1.614370,-6.531594,-1.094365,-0.099418,-0.451964,28.320000,17.940001,28.019999,-22.717,18.991,-96.815,,walk
2025-10-25T21:47:54.868866,39980,434,5.497386,-18.732832,-18.210897,-0.973945,3.703802,2.863419,6.471331,-22.436634,-21.074316,1.139569,0.549931,0.347048,28.320000,17.940001,28.019999,-27.322,-11.883,-134.191,,walk
2025-10-25T21:47:54.920089,40031,435,5.497386,-18.732832,-18.210897,-0.973945,3.703802,2.863419,6.471331,-22.436634,-21.074316,1.139569,0.549931,0.347048,28.320000,17.940001,28.019999,-27.322,-11.883,-134.191,,walk
2025-10-25T21:47:54.969825,40081,436,5.497386,-18.732832,-18.210897,-0.973945,3.703802,2.863419,6.471331,-22.436634,-21.074316,1.139569,0.549931,0.347048,28.320000,17.940001,28.019999,-27.322,-11.883,-134.191,,walk
2025-10-25T21:47:55.019824,40131,437,5.497386,-18.732832,-18.210897,5.969985,-9.460876,-15.052184,-0.472599,-9.271955,-3.158713,0.616668,0.885296,-0.042073,27.900000,21.959999,23.519999,-13.315,-11.883,-134.191,,walk
2025-10-25T21:47:55.071671,40183,438,-8.315362,-3.936068,1.572991,5.969985,-9.460876,-15.052184,-14.285347,5.524809,16.625175,0.616668,0.885296,-0.042073,27.900000,21.959999,23.519999,8.481,62.990,-68.217,,walk
2025-10-25T21:47:55.119838,40231,439,-8.315362,-3.936068,1.572991,5.969985,-9.460876,-15.052184,-14.285347,5.524809,16.625175,0.616668,0.885296,-0.042073,27.900000,21.959999,23.519999,8.481,62.990,-68.217,,walk
2025-10-25T21:47:55.169350,40281,440,-8.315362,-3.936068,1.572991,5.969985,-9.460876,-15.052184,-14.285347,5.524809,16.625175,0.616668,0.885296,-0.042073,27.900000,21.959999,23.519999,8.481,62.990,-68.217,,walk
2025-10-25T21:47:55.221078,40332,441,-8.315362,-3.936068,1.572991,-7.200305,5.805550,1.739155,-1.115057,-9.741617,-0.166164,1.183551,-0.530078,-0.304135,29.160000,26.459999,21.299999,9.380,62.990,-68.217,,walk
2025-10-25T21:47:55.269937,40381,442,-0.761356,-9.079112,-0.213084,-7.200305,5.805550,1.739155,6.438949,-14.884662,-1.952239,1.183551,-0.530078,-0.304135,29.160000,26.459999,21.299999,-30.498,4.792,-91.344,,walk
2025-10-25T21:47:55.319234,40430,443,-0.761356,-9.079112,-0.213084,-7.200305,5.805550,1.739155,6.438949,-14.884662,-1.952239,1.183551,-0.530078,-0.304135,29.160000,26.459999,21.299999,-30.498,4.792,-91.344,,walk
2025-10-25T21:47:55.370091,40481,444,-0.761356,-9.079112,-0.213084,-7.200305,5.805550,1.739155,6.438949,-14.884662,-1.952239,1.183551,-0.530078,-0.304135,29.160000,26.459999,21.299999,-30.498,4.792,-91.344,,walk
2025-10-25T21:47:55.419724,40531,445,0.074220,-9.517251,1.599327,0.383137,0.558903,-1.616227,-0.308917,-10.076154,3.215554,1.096809,-0.413403,0.499153,28.379999,29.939999,14.460000,-34.512,-0.441,-80.461,,walk
2025-10-25T21:47:55.469448,40581,446,0.074220,-9.517251,1.599327,0.383137,0.558903,-1.616227,-0.308917,-10.076154,3.215554,1.096809,-0.413403,0.499153,28.379999,29.939999,14.460000,-34.512,-0.441,-80.461,,walk
2025-10-25T21:47:55.519832,40631,447,0.074220,-9.517251,1.599327,0.383137,0.558903,-1.616227,-0.308917,-10.076154,3.215554,1.096809,-0.413403,0.499153,28.379999,29.939999,14.460000,-34.512,-0.441,-80.461,,walk
2025-10-25T21:47:55.586591,40698,448,0.074220,-9.517251,1.599327,1.276885,-0.059713,-0.698235,-1.202665,-9.457538,2.297562,-0.710131,-0.323606,0.022678,28.379999,29.939999,14.460000,-34.512,-0.441,-80.461,,walk
2025-10-25T21:47:55.619591,40731,449,3.584120,-14.700997,-2.049437,1.276885,-0.059713,-0.698235,2.307235,-14.641284,-1.351201,-0.710131,-0.323606,0.022678,28.740000,31.559999,12.900000,-30.620,-13.575,-97.936,,walk
2025-10-25T21:47:55.669268,40780,450,3.584120,-14.700997,-2.049437,1.276885,-0.059713,-0.698235,2.307235,-14.641284,-1.351201,-0.710131,-0.323606,0.022678,28.740000,31.559999,12.900000,-30.620,-13.575,-97.936,,walk
2025-10-25T21:47:55.719776,40831,451,3.584120,-14.700997,-2.049437,1.276885,-0.059713,-0.698235,2.307235,-14.641284,-1.351201,-0.710131,-0.323606,0.022678,28.740000,31.559999,12.900000,-30.620,-13.575,-97.936,,walk
2025-10-25T21:47:55.769042,40880,452,-1.347936,-10.132561,-0.435745,4.426256,-5.101658,-0.229151,-5.774192,-5.030903,-0.206594,-2.501188,-0.421955,0.008628,28.740000,31.559999,12.900000,-14.196,7.571,-92.462,,walk
2025-10-25T21:47:55.819857,40931,453,-1.347936,-10.132561,-0.435745,4.426256,-5.101658,-0.229151,-5.774192,-5.030903,-0.206594,-2.501188,-0.421955,0.008628,25.439999,22.320000,28.619999,-39.665,7.571,-92.462,,walk
2025-10-25T21:47:55.869473,40981,454,-1.347936,-10.132561,-0.435745,4.426256,-5.101658,-0.229151,-5.774192,-5.030903,-0.206594,-2.501188,-0.421955,0.008628,25.439999,22.320000,28.619999,-39.665,7.571,-92.462,,walk
2025-10-25T21:47:55.919760,41031,455,-1.347936,-10.132561,-0.435745,-0.516913,-1.321406,3.788347,-0.831022,-8.811154,-4.224091,-0.160963,-0.861778,-0.226555,25.439999,22.320000,28.619999,-39.665,7.571,-92.462,,walk
2025-10-25T21:47:55.969376,41081,456,-1.199495,-4.733337,-0.486023,-0.516913,-1.321406,3.788347,-0.682582,-3.411931,-4.274370,-0.160963,-0.861778,-0.226555,25.439999,22.320000,28.619999,-31.153,14.149,-95.863,,walk
2025-10-25T21:47:56.020082,41131,457,-1.199495,-4.733337,-0.486023,-0.516913,-1.321406,3.788347,-0.682582,-3.411931,-4.274370,-0.160963,-0.861778,-0.226555,27.180000,17.639999,29.699999,-31.049,14.149,-95.863,,walk
2025-10-25T21:47:56.069819,41181,458,-1.199495,-4.733337,-0.486023,-0.516913,-1.321406,3.788347,-0.682582,-3.411931,-4.274370,-0.160963,-0.861778,-0.226555,27.180000,17.639999,29.699999,-31.049,14.149,-95.863,,walk
2025-10-25T21:47:56.118837,41230,459,-1.199495,-4.733337,-0.486023,0.074637,4.242368,3.253411,-1.274132,-8.975705,-3.739434,-1.019229,-1.476919,-0.717690,27.180000,17.639999,29.699999,-31.049,14.149,-95.863,,walk
2025-10-25T21:47:56.169659,41281,460,-4.795586,-3.045424,-2.695871,0.074637,4.242368,3.253411,-4.870223,-7.287793,-5.949282,-1.019229,-1.476919,-0.717690,27.180000,17.639999,29.699999,17.687,49.698,-131.516,,walk
2025-10-25T21:47:56.219956,41331,461,-4.795586,-3.045424,-2.695871,0.074637,4.242368,3.253411,-4.870223,-7.287793,-5.949282,-1.019229,-1.476919,-0.717690,30.840000,19.680000,23.639999,26.828,49.698,-131.516,,walk
2025-10-25T21:47:56.270059,41381,462,-4.795586,-3.045424,-2.695871,-3.889938,6.286076,0.180403,-0.905648,-9.331500,-2.876274,2.236072,1.035569,0.916985,30.840000,19.680000,23.639999,26.828,49.698,-131.516,,walk
2025-10-25T21:47:56.319462,41431,463,1.161188,-11.643302,6.481403,-3.889938,6.286076,0.180403,5.051126,-17.929378,6.301001,2.236072,1.035569,0.916985,30.840000,19.680000,23.639999,-48.571,-4.980,-60.897,,walk
2025-10-25T21:47:56.369962,41481,464,1.161188,-11.643302,6.481403,-3.889938,6.286076,0.180403,5.051126,-17.929378,6.301001,2.236072,1.035569,0.916985,30.840000,19.680000,23.639999,-48.571,-4.980,-60.897,,walk
2025-10-25T21:47:56.419488,41531,465,1.161188,-11.643302,6.481403,-3.889938,6.286076,0.180403,5.051126,-17.929378,6.301001,2.236072,1.035569,0.916985,28.320000,25.740000,21.719999,-51.897,-4.980,-60.897,,walk
2025-10-25T21:47:56.469388,41581,466,1.161188,-11.643302,6.481403,2.084531,-1.883781,6.218438,-0.923344,-9.759521,0.262966,1.331381,0.477238,-0.200898,28.320000,25.740000,21.719999,-51.897,-4.980,-60.897,,walk
2025-10-25T21:47:56.519752,41631,467,-0.823605,-8.734347,-2.403779,2.084531,-1.883781,6.218438,-2.908137,-6.850566,-8.622216,1.331381,0.477238,-0.200898,28.320000,25.740000,21.719999,-20.954,5.195,-105.387,,walk
2025-10-25T21:47:56.569315,41681,468,-0.823605,-8.734347,-2.403779,2.084531,-1.883781,6.218438,-2.908137,-6.850566,-8.622216,1.331381,0.477238,-0.200898,28.320000,25.740000,21.719999,-20.954,5.195,-105.387,,walk
2025-10-25T21:47:56.619750,41731,469,-0.823605,-8.734347,-2.403779,2.084531,-1.883781,6.218438,-2.908137,-6.850566,-8.622216,1.331381,0.477238,-0.200898,26.820000,30.779999,17.879999,-13.229,5.195,-105.387,,walk
2025-10-25T21:47:56.669230,41780,470,-0.553061,-11.688792,-2.715025,0.580124,0.725780,-4.573032,-1.133184,-12.414572,1.858008,0.945925,0.077733,0.056276,26.820000,30.779999,17.879999,-18.484,2.639,-103.077,,walk
2025-10-25T21:47:56.718935,41830,471,-0.553061,-11.688792,-2.715025,0.580124,0.725780,-4.573032,-1.133184,-12.414572,1.858008,0.945925,0.077733,0.056276,26.820000,30.779999,17.879999,-18.484,2.639,-103.077,,walk
2025-10-25T21:47:56.769191,41880,472,-0.553061,-11.688792,-2.715025,0.580124,0.725780,-4.573032,-1.133184,-12.414572,1.858008,0.945925,0.077733,0.056276,26.820000,30.779999,17.879999,-18.484,2.639,-103.077,,walk
2025-10-25T21:47:56.819954,41931,473,-0.553061,-11.688792,-2.715025,0.601281,-2.044686,-4.067339,-1.154342,-9.644106,1.352314,-3.647782,-1.453707,-0.227166,27.240000,31.139999,15.900000,-14.457,2.639,-103.077,,walk
2025-10-25T21:47:56.869216,41980,474,-3.541024,-13.458107,3.948039,0.601281,-2.044686,-4.067339,-4.142306,-11.413421,8.015378,-3.647782,-1.453707,-0.227166,27.240000,31.139999,15.900000,-29.522,14.170,-73.651,,walk
2025-10-25T21:47:56.919536,42031,475,-3.541024,-13.458107,3.948039,0.601281,-2.044686,-4.067339,-4.142306,-11.413421,8.015378,-3.647782,-1.453707,-0.227166,27.240000,31.139999,15.900000,-29.522,14.170,-73.651,,walk
2025-10-25T21:47:56.969663,42081,476,-3.541024,-13.458107,3.948039,0.601281,-2.044686,-4.067339,-4.142306,-11.413421,8.015378,-3.647782,-1.453707,-0.227166,27.240000,31.139999,15.900000,-29.522,14.170,-73.651,,walk
2025-10-25T21:47:57.024,42135,477,-3.541024,-13.458107,3.948039,-2.691442,-4.220170,7.127459,-0.849583,-9.237937,-3.179420,-2.016161,-0.183718,0.278631,24.779999,18.719999,30.179998,-41.227,14.170,-73.651,,walk
2025-10-25T21:47:57.069720,42181,478,1.240196,-6.890812,2.056619,-2.691442,-4.220170,7.127459,3.931638,-2.670642,-5.070840,-2.016161,-0.183718,0.278631,24.779999,18.719999,30.179998,-63.017,-9.785,-73.382,,walk
2025-10-25T21:47:57.119823,42231,479,1.240196,-6.890812,2.056619,-2.691442,-4.220170,7.127459,3.931638,-2.670642,-5.070840,-2.016161,-0.183718,0.278631,24.779999,18.719999,30.179998,-63.017,-9.785,-73.382,,walk
2025-10-25T21:47:57.169296,42281,480,1.240196,-6.890812,2.056619,2.263801,1.834782,6.413929,-1.023605,-8.725594,-4.357310,1.363757,-0.789085,-0.324904,24.779999,18.719999,30.179998,-63.017,-9.785,-73.382,,walk
2025-10-25T21:47:57.219324,42331,481,-1.929727,-6.500557,-5.667375,2.263801,1.834782,6.413929,-4.193528,-8.335339,-12.081304,1.363757,-0.789085,-0.324904,27.240000,14.880000,29.639999,-12.850,12.613,-131.083,,walk
2025-10-25T21:47:57.269573,42381,482,-1.929727,-6.500557,-5.667375,2.263801,1.834782,6.413929,-4.193528,-8.335339,-12.081304,1.363757,-0.789085,-0.324904,27.240000,14.880000,29.639999,-12.850,12.613,-131.083,,walk
2025-10-25T21:47:57.325654,42437,483,-1.929727,-6.500557,-5.667375,2.263801,1.834782,6.413929,-4.193528,-8.335339,-12.081304,1.363757,-0.789085,-0.324904,27.240000,14.880000,29.639999,-12.850,12.613,-131.083,,walk
2025-10-25T21:47:57.369247,42480,484,-1.929727,-6.500557,-5.667375,-0.871889,2.497784,-1.914965,-1.057838,-8.998341,-3.752409,1.496925,0.568868,0.138743,27.240000,14.880000,29.639999,-12.850,12.613,-131.083,,walk
2025-10-25T21:47:57.419785,42531,485,-2.497152,-18.136677,-15.725716,-0.871889,2.497784,-1.914965,-1.625263,-20.634460,-13.810750,1.496925,0.568868,0.138743,27.959999,18.059999,26.219999,-10.554,5.939,-130.927,,walk
2025-10-25T21:47:57.469372,42581,486,-2.497152,-18.136677,-15.725716,-0.871889,2.497784,-1.914965,-1.625263,-20.634460,-13.810750,1.496925,0.568868,0.138743,27.959999,18.059999,26.219999,-10.554,5.939,-130.927,,walk
2025-10-25T21:47:57.519848,42631,487,-2.497152,-18.136677,-15.725716,-0.871889,2.497784,-1.914965,-1.625263,-20.634460,-13.810750,1.496925,0.568868,0.138743,27.959999,18.059999,26.219999,-10.554,5.939,-130.927,,walk
2025-10-25T21:47:57.569318,42681,488,-1.113304,-8.739136,-2.166753,-1.263192,-8.501708,-14.378612,0.149888,-0.237428,12.211859,2.049758,1.128421,0.039783,27.959999,18.059999,26.219999,-29.585,7.049,-103.925,,walk
2025-10-25T21:47:57.619896,42731,489,-1.113304,-8.739136,-2.166753,-1.263192,-8.501708,-14.378612,0.149888,-0.237428,12.211859,2.049758,1.128421,0.039783,28.740000,24.059999,22.920000,-22.321,7.049,-103.925,,walk
2025-10-25T21:47:57.669517,42781,490,-1.113304,-8.739136,-2.166753,-1.263192,-8.501708,-14.378612,0.149888,-0.237428,12.211859,2.049758,1.128421,0.039783,28.740000,24.059999,22.920000,-22.321,7.049,-103.925,,walk
2025-10-25T21:47:57.719857,42831,491,-1.113304,-8.739136,-2.166753,-0.164462,0.986972,-2.986791,-0.948842,-9.726108,0.820039,0.802372,0.662942,0.078878,28.740000,24.059999,22.920000,-22.321,7.049,-103.925,,walk
2025-10-25T21:47:57.769355,42881,492,0.126893,-8.092701,2.899378,-0.164462,0.986972,-2.986791,0.291355,-9.079673,5.886169,0.802372,0.662942,0.078878,28.740000,24.059999,22.920000,-46.655,-0.846,-70.289,,walk
2025-10-25T21:47:57.819476,42931,493,0.126893,-8.092701,2.899378,-0.164462,0.986972,-2.986791,0.291355,-9.079673,5.886169,0.802372,0.662942,0.078878,27.599998,29.039999,16.859999,-43.606,-0.846,-70.289,,walk
2025-10-25T21:47:57.869299,42981,494,0.126893,-8.092701,2.899378,-0.164462,0.986972,-2.986791,0.291355,-9.079673,5.886169,0.802372,0.662942,0.078878,27.599998,29.039999,16.859999,-43.606,-0.846,-70.289,,walk
2025-10-25T21:47:57.923346,43035,495,0.126893,-8.092701,2.899378,1.304447,1.366093,0.594019,-1.177554,-9.458794,2.305359,0.417526,0.518777,-0.334067,27.599998,29.039999,16.859999,-43.606,-0.846,-70.289,,walk
2025-10-25T21:47:57.970257,43081,496,-0.545878,-13.553875,-4.271256,1.304447,1.366093,0.594019,-1.850325,-14.919968,-4.865275,0.417526,0.518777,-0.334067,27.599998,29.039999,16.859999,-12.640,2.200,-107.491,,walk
2025-10-25T21:47:58.019874,43131,497,-0.545878,-13.553875,-4.271256,1.304447,1.366093,0.594019,-1.850325,-14.919968,-4.865275,0.417526,0.518777,-0.334067,27.599998,29.879999,14.580000,-7.900,2.200,-107.491,,walk
2025-10-25T21:47:58.070074,43181,498,-0.545878,-13.553875,-4.271256,1.304447,1.366093,0.594019,-1.850325,-14.919968,-4.865275,0.417526,0.518777,-0.334067,27.599998,29.879999,14.580000,-7.900,2.200,-107.491,,walk
2025-10-25T21:47:58.119799,43231,499,-2.377442,-10.874763,-3.026271,0.140638,-3.830386,-3.197726,-2.518080,-7.044377,0.171455,-1.975233,0.966542,-0.097662,27.599998,29.879999,14.580000,-0.485,11.894,-105.551,,walk
2025-10-25T21:47:58.170023,43281,500,-2.377442,-10.874763,-3.026271,0.140638,-3.830386,-3.197726,-2.518080,-7.044377,0.171455,-1.975233,0.966542,-0.097662,27.599998,29.879999,14.580000,-0.485,11.894,-105.551,,walk
2025-10-25T21:47:58.219977,43331,501,-2.377442,-10.874763,-3.026271,0.140638,-3.830386,-3.197726,-2.518080,-7.044377,0.171455,-1.975233,0.966542,-0.097662,23.519999,17.699999,30.000000,-32.868,11.894,-105.551,,walk
2025-10-25T21:47:58.269341,43381,502,-2.377442,-10.874763,-3.026271,-1.510587,-2.213074,1.489646,-0.866855,-8.661690,-4.515917,-1.379028,-0.459218,-0.258931,23.519999,17.699999,30.000000,-32.868,11.894,-105.551,,walk
2025-10-25T21:47:58.319795,43431,503,-1.254562,-4.879383,-0.543484,-1.510587,-2.213074,1.489646,0.256025,-2.666309,-2.033130,-1.379028,-0.459218,-0.258931,23.519999,17.699999,30.000000,-34.979,14.334,-96.356,,walk
2025-10-25T21:47:58.368838,43480,504,-1.254562,-4.879383,-0.543484,-1.510587,-2.213074,1.489646,0.256025,-2.666309,-2.033130,-1.379028,-0.459218,-0.258931,23.519999,17.699999,30.000000,-34.979,14.334,-96.356,,walk
2025-10-25T21:47:58.419068,43530,505,-1.254562,-4.879383,-0.543484,-1.510587,-2.213074,1.489646,0.256025,-2.666309,-2.033130,-1.379028,-0.459218,-0.258931,24.240000,13.259999,29.580000,-34.344,14.334,-96.356,,walk
2025-10-25T21:47:58.468675,43580,506,1.252167,-11.157279,-4.893748,-0.209486,4.076195,3.313395,1.461654,-15.233474,-8.207143,-1.212873,-0.599717,0.281074,24.240000,13.259999,29.580000,-48.564,-5.868,-113.683,,walk
2025-10-25T21:47:58.519268,43630,507,1.252167,-11.157279,-4.893748,-0.209486,4.076195,3.313395,1.461654,-15.233474,-8.207143,-1.212873,-0.599717,0.281074,24.240000,13.259999,29.580000,-48.564,-5.868,-113.683,,walk
2025-10-25T21:47:58.570306,43682,508,1.252167,-11.157279,-4.893748,-0.209486,4.076195,3.313395,1.461654,-15.233474,-8.207143,-1.212873,-0.599717,0.281074,24.240000,13.259999,29.580000,-48.564,-5.868,-113.683,,walk
2025-10-25T21:47:58.620095,43731,509,1.252167,-11.157279,-4.893748,2.260355,-2.135942,-1.183123,-1.008188,-9.021337,-3.710626,1.774869,0.264046,0.704404,25.859999,15.780000,25.799999,-40.310,-5.868,-113.683,,walk
2025-10-25T21:47:58.669627,43781,510,1.252167,-8.669703,5.348946,2.260355,-2.135942,-1.183123,-1.008188,-6.533761,6.532069,1.774869,0.264046,0.704404,25.859999,15.780000,25.799999,-55.499,-7.008,-58.327,,walk
2025-10-25T21:47:58.719852,43831,511,1.252167,-8.669703,5.348946,2.260355,-2.135942,-1.183123,-1.008188,-6.533761,6.532069,1.774869,0.264046,0.704404,25.859999,15.780000,25.799999,-55.499,-7.008,-58.327,,walk
2025-10-25T21:47:58.770184,43881,512,1.252167,-8.669703,5.348946,2.260355,-2.135942,-1.183123,-1.008188,-6.533761,6.532069,1.774869,0.264046,0.704404,25.859999,15.780000,25.799999,-55.499,-7.008,-58.327,,walk
2025-10-25T21:47:58.821295,43933,513,-0.550666,-9.016863,-1.300052,2.410287,1.053475,5.886157,-2.960954,-10.070338,-7.186209,1.441947,-0.349262,-0.114155,25.500000,23.879999,22.619999,-33.002,3.459,-98.204,,walk
2025-10-25T21:47:58.870371,43982,514,-0.550666,-9.016863,-1.300052,2.410287,1.053475,5.886157,-2.960954,-10.070338,-7.186209,1.441947,-0.349262,-0.114155,25.500000,23.879999,22.619999,-33.002,3.459,-98.204,,walk
2025-10-25T21:47:58.920121,44031,515,-0.550666,-9.016863,-1.300052,2.410287,1.053475,5.886157,-2.960954,-10.070338,-7.186209,1.441947,-0.349262,-0.114155,25.500000,23.879999,22.619999,-33.002,3.459,-98.204,,walk
2025-10-25T21:47:58.968679,44080,516,-0.550666,-9.016863,-1.300052,0.779900,0.575274,-2.846236,-1.330566,-9.592137,1.546184,1.408350,-0.914923,0.634765,25.500000,23.879999,22.619999,-33.002,3.459,-98.204,,walk
2025-10-25T21:47:59.020366,44132,517,1.340753,-11.537957,-4.860229,0.779900,0.575274,-2.846236,0.560853,-12.113232,-2.013994,1.408350,-0.914923,0.634765,24.420000,27.840000,16.559999,-16.718,-6.113,-112.843,,walk
2025-10-25T21:47:59.069315,44181,518,1.340753,-11.537957,-4.860229,0.779900,0.575274,-2.846236,0.560853,-12.113232,-2.013994,1.408350,-0.914923,0.634765,24.420000,27.840000,16.559999,-16.718,-6.113,-112.843,,walk
2025-10-25T21:47:59.119759,44231,519,1.340753,-11.537957,-4.860229,0.779900,0.575274,-2.846236,0.560853,-12.113232,-2.013994,1.408350,-0.914923,0.634765,24.420000,27.840000,16.559999,-16.718,-6.113,-112.843,,walk
2025-10-25T21:47:59.168578,44280,520,1.340753,-11.537957,-4.860229,2.801682,-1.989246,-6.550786,-1.460929,-9.548711,1.690557,-1.766317,-0.277180,-0.078725,24.420000,27.840000,16.559999,-16.718,-6.113,-112.843,,walk
2025-10-25T21:47:59.219211,44330,521,1.699883,-14.001591,-5.035306,2.801682,-1.989246,-6.550786,-1.101798,-12.012344,1.515481,-1.766317,-0.277180,-0.078725,24.359999,27.900000,16.680000,-21.426,-6.517,-109.780,,walk
2025-10-25T21:47:59.269823,44381,522,1.699883,-14.001591,-5.035306,2.801682,-1.989246,-6.550786,-1.101798,-12.012344,1.515481,-1.766317,-0.277180,-0.078725,24.359999,27.900000,16.680000,-21.426,-6.517,-109.780,,walk
2025-10-25T21:47:59.320029,44431,523,1.699883,-14.001591,-5.035306,2.801682,-1.989246,-6.550786,-1.101798,-12.012344,1.515481,-1.766317,-0.277180,-0.078725,24.359999,27.900000,16.680000,-21.426,-6.517,-109.780,,walk
2025-10-25T21:47:59.369186,44480,524,-2.911349,-7.422325,1.230620,2.450363,-4.664426,-2.132873,-5.361712,-2.757899,3.363493,-2.185370,-0.605826,-0.458683,24.359999,27.900000,16.680000,-21.357,21.154,-80.586,,walk
2025-10-25T21:47:59.420536,44532,525,-2.911349,-7.422325,1.230620,2.450363,-4.664426,-2.132873,-5.361712,-2.757899,3.363493,-2.185370,-0.605826,-0.458683,20.100000,17.219999,31.260000,-39.122,21.154,-80.586,,walk
2025-10-25T21:47:59.469759,44581,526,-2.911349,-7.422325,1.230620,2.450363,-4.664426,-2.132873,-5.361712,-2.757899,3.363493,-2.185370,-0.605826,-0.458683,20.100000,17.219999,31.260000,-39.122,21.154,-80.586,,walk
2025-10-25T21:47:59.519750,44631,527,-2.911349,-7.422325,1.230620,-2.513490,1.198660,5.887877,-0.397860,-8.620985,-4.657257,0.306349,-0.776868,-0.422642,20.100000,17.219999,31.260000,-39.122,21.154,-80.586,,walk
2025-10-25T21:47:59.569318,44681,528,-3.591303,-3.519476,-0.354342,-2.513490,1.198660,5.887877,-1.077813,-4.718137,-6.242218,0.306349,-0.776868,-0.422642,20.100000,17.219999,31.260000,-9.140,45.434,-95.749,,walk
2025-10-25T21:47:59.619429,44731,529,-3.591303,-3.519476,-0.354342,-2.513490,1.198660,5.887877,-1.077813,-4.718137,-6.242218,0.306349,-0.776868,-0.422642,21.840000,17.520000,29.879999,-5.655,45.434,-95.749,,walk
2025-10-25T21:47:59.669363,44781,530,-3.591303,-3.519476,-0.354342,-2.513490,1.198660,5.887877,-1.077813,-4.718137,-6.242218,0.306349,-0.776868,-0.422642,21.840000,17.520000,29.879999,-5.655,45.434,-95.749,,walk
2025-10-25T21:47:59.718562,44830,531,-3.591303,-3.519476,-0.354342,-2.714185,5.295218,3.853007,-0.877118,-8.814694,-4.207349,0.303905,-0.776868,0.158901,21.840000,17.520000,29.879999,-5.655,45.434,-95.749,,walk
2025-10-25T21:47:59.769148,44880,532,-6.007351,-14.511556,4.826711,-2.714185,5.295218,3.853007,-3.293167,-19.806774,0.973703,0.303905,-0.776868,0.158901,21.840000,17.520000,29.879999,-37.915,21.445,-71.602,,walk
2025-10-25T21:47:59.819853,44931,533,-6.007351,-14.511556,4.826711,-2.714185,5.295218,3.853007,-3.293167,-19.806774,0.973703,0.303905,-0.776868,0.158901,22.680000,17.760000,27.299999,-35.096,21.445,-71.602,,walk
2025-10-25T21:47:59.869289,44981,534,-6.007351,-14.511556,4.826711,-2.714185,5.295218,3.853007,-3.293167,-19.806774,0.973703,0.303905,-0.776868,0.158901,22.680000,17.760000,27.299999,-35.096,21.445,-71.602,,walk
2025-10-25T21:47:59.918979,45030,535,7.934684,-13.043910,-2.669535,-4.864086,-5.190739,7.652511,12.798769,-7.853171,-10.322046,2.058311,0.474184,1.543122,22.680000,17.760000,27.299999,-79.860,-30.793,-101.566,,walk
2025-10-25T21:47:59.969526,45081,536,7.934684,-13.043910,-2.669535,-4.864086,-5.190739,7.652511,12.798769,-7.853171,-10.322046,2.058311,0.474184,1.543122,22.680000,17.760000,27.299999,-79.860,-30.793,-101.566,,walk
2025-10-25T21:48:00.018903,45130,537,7.934684,-13.043910,-2.669535,-4.864086,-5.190739,7.652511,12.798769,-7.853171,-10.322046,2.058311,0.474184,1.543122,26.340000,24.299999,21.240000,-65.850,-30.793,-101.566,,walk
2025-10-25T21:48:00.069385,45181,538,7.934684,-13.043910,-2.669535,9.055808,-3.301814,-2.738226,-1.121124,-9.742096,0.068691,1.014342,0.334296,-0.371941,26.340000,24.299999,21.240000,-65.850,-30.793,-101.566,,walk
2025-10-25T21:48:00.119194,45230,539,-0.737414,-8.566753,-0.143652,9.055808,-3.301814,-2.738226,-9.793222,-5.264939,2.594574,1.014342,0.334296,-0.371941,26.340000,24.299999,21.240000,-33.383,4.919,-90.961,,walk
2025-10-25T21:48:00.168872,45280,540,-0.737414,-8.566753,-0.143652,9.055808,-3.301814,-2.738226,-9.793222,-5.264939,2.594574,1.014342,0.334296,-0.371941,26.340000,24.299999,21.240000,-33.383,4.919,-90.961,,walk
2025-10-25T21:48:00.219060,45330,541,-0.737414,-8.566753,-0.143652,9.055808,-3.301814,-2.738226,-9.793222,-5.264939,2.594574,1.014342,0.334296,-0.371941,25.260000,29.879999,14.160000,-23.442,4.919,-90.961,,walk
2025-10-25T21:48:00.268951,45380,542,-1.446098,-12.706327,-0.215478,0.530498,0.933894,-2.217349,-1.976596,-13.640222,2.001871,0.951423,0.141873,0.145462,25.260000,29.879999,14.160000,-21.848,6.492,-90.972,,walk
2025-10-25T21:48:00.319895,45431,543,-1.446098,-12.706327,-0.215478,0.530498,0.933894,-2.217349,-1.976596,-13.640222,2.001871,0.951423,0.141873,0.145462,25.260000,29.879999,14.160000,-21.848,6.492,-90.972,,walk
2025-10-25T21:48:00.369925,45481,544,-1.446098,-12.706327,-0.215478,0.530498,0.933894,-2.217349,-1.976596,-13.640222,2.001871,0.951423,0.141873,0.145462,25.260000,29.879999,14.160000,-21.848,6.492,-90.972,,walk
2025-10-25T21:48:00.419577,45531,545,-1.446098,-12.706327,-0.215478,0.216467,-3.129616,-1.516438,-1.662565,-9.576712,1.300960,-2.426051,-1.508684,-0.217392,26.760000,28.379999,13.799999,-19.924,6.492,-90.972,,walk
2025-10-25T21:48:00.469918,45581,546,-4.901230,-8.564359,0.852336,0.216467,-3.129616,-1.516438,-5.117697,-5.434743,2.368774,-2.426051,-1.508684,-0.217392,26.760000,28.379999,13.799999,-2.980,29.660,-84.317,,walk
2025-10-25T21:48:00.518575,45630,547,-4.901230,-8.564359,0.852336,0.216467,-3.129616,-1.516438,-5.117697,-5.434743,2.368774,-2.426051,-1.508684,-0.217392,26.760000,28.379999,13.799999,-2.980,29.660,-84.317,,walk
2025-10-25T21:48:00.568689,45680,548,-4.901230,-8.564359,0.852336,0.216467,-3.129616,-1.516438,-5.117697,-5.434743,2.368774,-2.426051,-1.508684,-0.217392,26.760000,28.379999,13.799999,-2.980,29.660,-84.317,,walk
2025-10-25T21:48:00.618629,45730,549,-2.779668,-5.851728,-0.026336,-3.931602,0.855852,3.399755,1.151933,-6.707581,-3.426091,-1.705841,0.429591,-0.293139,27.119999,22.619999,26.160000,-18.412,25.408,-90.258,,walk
2025-10-25T21:48:00.668840,45780,550,-2.779668,-5.851728,-0.026336,-3.931602,0.855852,3.399755,1.151933,-6.707581,-3.426091,-1.705841,0.429591,-0.293139,27.119999,22.619999,26.160000,-18.412,25.408,-90.258,,walk
2025-10-25T21:48:00.718765,45830,551,-2.779668,-5.851728,-0.026336,-3.931602,0.855852,3.399755,1.151933,-6.707581,-3.426091,-1.705841,0.429591,-0.293139,27.119999,22.619999,26.160000,-18.412,25.408,-90.258,,walk
2025-10-25T21:48:00.768455,45880,552,-2.779668,-5.851728,-0.026336,-1.660435,2.868886,4.317404,-1.119233,-8.720614,-4.343740,0.285580,-1.213637,-0.275424,27.119999,22.619999,26.160000,-18.412,25.408,-90.258,,walk
2025-10-25T21:48:00.818883,45930,553,-1.321599,-4.515464,-2.063802,-1.660435,2.868886,4.317404,0.338835,-7.384350,-6.381206,0.285580,-1.213637,-0.275424,27.240000,17.039999,27.180000,-17.387,14.906,-114.563,,walk
2025-10-25T21:48:00.869097,45980,554,-1.321599,-4.515464,-2.063802,-1.660435,2.868886,4.317404,0.338835,-7.384350,-6.381206,0.285580,-1.213637,-0.275424,27.240000,17.039999,27.180000,-17.387,14.906,-114.563,,walk
2025-10-25T21:48:00.918904,46030,555,-1.321599,-4.515464,-2.063802,-1.660435,2.868886,4.317404,0.338835,-7.384350,-6.381206,0.285580,-1.213637,-0.275424,27.240000,17.039999,27.180000,-17.387,14.906,-114.563,,walk
2025-10-25T21:48:00.971047,46082,556,-1.321599,-4.515464,-2.063802,0.126409,4.370979,1.822618,-1.448008,-8.886443,-3.886419,1.052826,0.964098,0.277409,27.240000,17.039999,27.180000,-17.387,14.906,-114.563,,walk
2025-10-25T21:48:01.019345,46131,557,-5.557241,-19.783888,-10.058341,0.126409,4.370979,1.822618,-5.683650,-24.154867,-11.880959,1.052826,0.964098,0.277409,29.879999,18.959999,21.420000,-5.779,14.057,-116.949,,walk
2025-10-25T21:48:01.068821,46180,558,-5.557241,-19.783888,-10.058341,0.126409,4.370979,1.822618,-5.683650,-24.154867,-11.880959,1.052826,0.964098,0.277409,29.879999,18.959999,21.420000,-5.779,14.057,-116.949,,walk
2025-10-25T21:48:01.118911,46230,559,-5.557241,-19.783888,-10.058341,0.126409,4.370979,1.822618,-5.683650,-24.154867,-11.880959,1.052826,0.964098,0.277409,29.879999,18.959999,21.420000,-5.779,14.057,-116.949,,walk
2025-10-25T21:48:01.168746,46280,560,-2.726996,-7.692869,-3.184288,-4.066012,-10.226830,-8.443210,1.339017,2.533960,5.258921,2.540283,1.879785,-0.475788,29.879999,18.959999,21.420000,-4.831,18.135,-112.486,,walk
2025-10-25T21:48:01.219683,46331,561,-2.726996,-7.692869,-3.184288,-4.066012,-10.226830,-8.443210,1.339017,2.533960,5.258921,2.540283,1.879785,-0.475788,27.840000,24.600000,20.520000,-1.052,18.135,-112.486,,walk
2025-10-25T21:48:01.269347,46381,562,-2.726996,-7.692869,-3.184288,-4.066012,-10.226830,-8.443210,1.339017,2.533960,5.258921,2.540283,1.879785,-0.475788,27.840000,24.600000,20.520000,-1.052,18.135,-112.486,,walk
2025-10-25T21:48:01.319545,46431,563,-2.726996,-7.692869,-3.184288,-1.722117,2.031240,-3.960146,-1.004879,-9.724110,0.775858,0.788932,0.841314,0.356211,27.840000,24.600000,20.520000,-1.052,18.135,-112.486,,walk
2025-10-25T21:48:01.369157,46480,564,0.052672,-8.858846,2.138022,-1.722117,2.031240,-3.960146,1.774789,-10.890086,6.098168,0.788932,0.841314,0.356211,27.840000,24.600000,20.520000,-43.027,-0.331,-76.432,,walk
