timestamp_iso,session_ms,sample_idx,acc_x,acc_y,acc_z,useracc_x,useracc_y,useracc_z,gravity_x,gravity_y,gravity_z,gyro_x,gyro_y,gyro_z,mag_x,mag_y,mag_z,yaw_deg,pitch_deg,roll_deg,pressure_hpa,label
2025-10-18T17:49:48.426119,50,0,2.053950,5.611950,7.276051,0.238837,0.283116,-0.323411,1.815113,5.328834,7.599462,1.504663,0.306900,0.833937,-28.500002,-11.212501,-34.537502,-142.602,-12.600,37.643,,walk
2025-10-18T17:49:48.477252,101,1,2.034000,5.593050,8.502001,0.253955,0.277909,-0.274232,1.780045,5.315141,8.776233,0.722013,0.198687,0.063525,-28.931252,-11.681251,-34.181252,-151.475,-11.303,33.339,,walk
2025-10-18T17:49:48.526198,150,2,1.708950,5.631000,8.158051,0.236893,0.271653,-0.235871,1.472057,5.359347,8.393922,0.149463,0.105600,-0.266887,-29.325001,-12.056251,-33.825001,-152.908,-9.782,34.615,,walk
2025-10-18T17:49:48.577702,202,3,1.402050,5.401050,9.172951,0.164879,0.248103,-0.125136,1.237171,5.152947,9.298087,-0.474925,0.042487,-0.403288,-29.493752,-12.112500,-33.693752,-161.181,-7.503,30.490,,walk
2025-10-18T17:49:48.626228,250,4,1.306950,4.941000,10.129951,0.104200,0.225153,-0.026573,1.202750,4.715847,10.156524,-0.737962,0.061875,-0.450725,-29.550001,-11.962501,-33.656250,-168.039,-6.614,26.001,,walk
2025-10-18T17:49:48.676417,300,5,0.330000,3.984000,11.164950,-0.001948,0.173704,0.118935,0.331948,3.810296,11.046015,-1.087762,0.191400,-0.667975,-29.437502,-11.812500,-33.731251,-179.031,-1.595,19.638,,walk
2025-10-18T17:49:48.726127,350,6,-0.187050,3.178950,10.225950,-0.098908,0.078926,0.165472,-0.088142,3.100024,10.060478,-1.338700,0.305800,-1.006637,-28.968752,-11.550000,-34.106251,177.953,1.001,17.269,,walk
2025-10-18T17:49:48.776227,400,7,-0.378000,2.892000,9.096001,-0.163562,-0.005280,0.162313,-0.214438,2.897280,8.933688,-1.369225,0.381700,-1.098763,-28.462502,-11.231251,-34.462502,178.826,2.268,17.638,,walk
2025-10-18T17:49:48.826363,450,8,-1.009950,2.872950,7.947001,-0.288551,-0.121015,0.139165,-0.721399,2.993965,7.807836,-1.097662,0.538312,-0.960575,-27.600000,-10.650001,-35.043751,-178.728,6.815,19.876,,walk
2025-10-18T17:49:48.876635,501,9,-1.527000,3.121950,7.582951,-0.368107,-0.174485,0.122058,-1.158893,3.296435,7.460893,-0.714725,0.733562,-0.619162,-26.943750,-10.181251,-35.568752,-176.497,10.548,22.377,,walk
2025-10-18T17:49:48.926256,550,10,-1.029000,3.274950,7.545001,-0.390601,-0.226471,0.133339,-0.638399,3.501421,7.411662,-0.084150,0.987800,0.014438,-25.968752,-9.412500,-36.337502,-171.660,7.131,23.464,,walk
2025-10-18T17:49:48.977395,601,11,-0.262950,3.274950,7.984951,-0.345040,-0.254969,0.155524,0.082090,3.529919,7.829427,0.205563,0.952462,0.444950,-25.275002,-8.793751,-36.900002,-168.085,1.745,22.301,,walk
2025-10-18T17:49:49.026279,650,12,0.367950,3.333000,9.172951,-0.295041,-0.282699,0.180320,0.662991,3.615699,8.992631,0.248737,0.491975,0.951362,-24.375002,-7.706250,-37.706253,-165.485,-2.159,19.969,,walk
2025-10-18T17:49:49.077353,701,13,0.445050,3.619950,9.382951,-0.267167,-0.280516,0.163411,0.712217,3.900466,9.219540,0.115363,0.033550,1.161325,-23.887501,-7.012500,-38.062500,-161.262,-2.534,21.097,,walk
2025-10-18T17:49:49.126638,751,14,0.712950,4.174950,8.407050,-0.209120,-0.246524,0.116450,0.922070,4.421474,8.290600,0.010450,-0.408100,1.409925,-23.456251,-6.150000,-38.512501,-148.874,-4.343,26.409,,walk
2025-10-18T17:49:49.176447,800,15,1.057950,4.290000,7.927950,-0.134473,-0.194256,-0.021502,1.192423,4.484256,7.949452,0.229075,-0.374000,1.532575,-23.250000,-5.700000,-38.737503,-141.860,-6.694,28.419,,walk
2025-10-18T17:49:49.226195,850,16,0.655050,4.021950,9.154051,-0.104468,-0.156911,-0.094028,0.759518,4.178861,9.248079,0.398612,-0.170775,1.416113,-23.043751,-5.118750,-38.981251,-150.503,-3.748,23.719,,walk
2025-10-18T17:49:49.276206,900,17,-0.148050,3.715950,11.490001,-0.070453,-0.094188,-0.056818,-0.077597,3.810138,11.546819,0.228250,-0.001375,0.585475,-22.950001,-4.800000,-39.093750,-162.526,0.702,17.922,,walk
2025-10-18T17:49:49.326349,950,18,-0.013950,4.060050,11.566951,-0.042930,-0.026973,0.021476,0.028980,4.087023,11.545475,-0.091987,-0.035338,-0.253412,-23.100000,-4.575000,-39.037502,-159.608,0.065,19.341,,walk
2025-10-18T17:49:49.376467,1000,19,0.769950,4.692000,10.035001,0.038408,0.093680,0.097812,0.731542,4.598320,9.937189,-0.455537,-0.199375,-1.248500,-23.381250,-4.650000,-38.812500,-148.039,-3.976,25.059,,walk
2025-10-18T17:49:49.426228,1050,20,1.267950,4.194000,10.207050,0.123322,0.131149,0.161287,1.144628,4.062851,10.045763,-0.449212,-0.330550,-1.387238,-23.868752,-4.818750,-38.512501,-150.073,-6.555,22.337,,walk
2025-10-18T17:49:49.476850,1101,21,0.769950,2.929950,10.245001,0.221672,0.077734,0.262099,0.548278,2.852216,9.982902,-0.233063,-0.515900,-1.062050,-24.318750,-4.931250,-38.268753,-163.824,-4.133,15.960,,walk
2025-10-18T17:49:49.526851,1151,22,0.943050,2.833950,7.947001,0.238168,0.026128,0.217695,0.704882,2.807822,7.729306,-0.138462,-0.655738,-0.847687,-25.406252,-5.193750,-37.612503,-157.771,-6.378,19.627,,walk
2025-10-18T17:49:49.577200,1201,23,3.394050,4.233000,5.916000,0.302076,0.049528,-0.005416,3.091974,4.183472,5.921416,0.054725,-0.971438,-0.484825,-26.231251,-5.493750,-37.087502,-110.582,-25.012,35.584,,walk
2025-10-18T17:49:49.627106,1251,24,5.022000,4.768950,4.900950,0.406524,0.098172,-0.197471,4.615476,4.670778,5.098421,0.499812,-1.192400,0.300988,-27.187502,-6.206250,-36.300003,-90.899,-36.293,44.218,,walk
2025-10-18T17:49:49.676867,1301,25,3.414000,4.462950,5.398950,0.440526,0.109857,-0.354159,2.973474,4.353093,5.753109,1.979587,-0.856212,2.581012,-27.581251,-6.712500,-35.981251,-111.322,-25.984,39.578,,walk
2025-10-18T17:49:49.726751,1351,26,0.808950,4.137000,7.027050,0.280388,0.060102,-0.323880,0.528562,4.076898,7.350930,2.892863,0.019112,3.575550,-27.750002,-7.387500,-35.756252,-151.503,-5.665,30.486,,walk
2025-10-18T17:49:49.776665,1401,27,0.214950,4.021950,8.578951,0.145128,0.026007,-0.189112,0.069822,3.995943,8.768063,1.982337,0.395038,2.117500,-27.712502,-7.762500,-35.681252,-162.694,-1.300,25.118,,walk
2025-10-18T17:49:49.826607,1451,28,0.271950,4.270950,8.731951,0.040653,0.023573,-0.117000,0.231297,4.247377,8.848951,-0.488400,0.590700,-1.773750,-27.825001,-8.287500,-35.550003,-162.394,-1.603,26.064,,walk
2025-10-18T17:49:49.876602,1501,29,1.018950,4.731000,8.253000,0.070621,0.061780,-0.213510,0.948329,4.669220,8.466510,-1.707613,0.508613,-3.293125,-27.993752,-8.681251,-35.287502,-154.661,-6.114,29.823,,walk
2025-10-18T17:49:49.926634,1551,30,0.885000,5.037000,9.288000,0.100756,0.085865,-0.269262,0.784244,4.951135,9.557262,-1.427112,0.584787,-2.582525,-27.975000,-9.075001,-35.137501,-158.496,-4.788,28.472,,walk
2025-10-18T17:49:49.976717,1601,31,0.424950,5.305050,9.631950,0.058953,0.084378,-0.200631,0.365997,5.220672,9.832581,-0.557975,0.568425,-1.020250,-27.806252,-9.225000,-35.212502,-160.394,-2.213,28.845,,walk
2025-10-18T17:49:50.026844,1651,32,0.022950,5.458950,9.441000,-0.036948,0.133459,-0.152698,0.059898,5.325491,9.593698,0.123475,0.322575,0.269775,-27.393751,-9.393750,-35.400002,-160.608,-0.121,30.037,,walk
2025-10-18T17:49:50.076904,1701,33,-0.742050,4.635000,10.150050,-0.091743,0.170112,-0.117434,-0.650307,4.464888,10.267484,0.187550,0.286825,0.218075,-26.962502,-9.412500,-35.606251,-169.446,3.805,24.544,,walk
2025-10-18T17:49:50.126504,1750,34,-1.909950,3.007050,11.068951,-0.225838,0.118790,0.140884,-1.684112,2.888260,10.928067,-0.244888,0.331787,-0.734388,-25.818750,-9.281250,-36.281250,178.750,9.454,15.198,,walk
2025-10-18T17:49:50.176760,1801,35,-1.048050,2.547000,9.517051,-0.434900,-0.046032,0.358018,-0.613150,2.593032,9.159033,-0.891000,0.262212,-1.690012,-24.881250,-9.168751,-36.825001,179.859,6.072,14.983,,walk
2025-10-18T17:49:50.226801,1851,36,-0.627000,2.470950,8.272051,-0.547152,-0.140090,0.392284,-0.079848,2.611040,7.879767,-1.085287,0.174625,-1.860925,-23.718750,-9.037500,-37.593750,-176.571,4.154,16.631,,walk
2025-10-18T17:49:50.276762,1901,37,-1.489050,3.103050,7.755001,-0.572728,-0.170004,0.377048,-0.916322,3.273054,7.377953,-0.871750,0.138462,-1.253312,-23.156250,-8.943750,-37.987503,-172.116,10.108,21.808,,walk
2025-10-18T17:49:50.326485,1950,38,-1.470000,3.486000,7.411050,-0.496354,-0.149054,0.280159,-0.973646,3.635054,7.130891,-0.466262,0.186037,-0.487437,-22.631250,-8.831250,-38.268753,-167.684,10.176,25.191,,walk
2025-10-18T17:49:50.376603,2001,39,-0.742050,3.811050,6.988950,-0.336350,-0.090912,0.041463,-0.405700,3.901962,6.947487,0.331375,0.467362,0.824588,-22.425001,-8.831250,-38.343750,-159.794,5.326,28.603,,walk
2025-10-18T17:49:50.426182,2050,40,-0.838050,4.213950,7.411050,-0.257535,-0.062157,-0.055685,-0.580515,4.276107,7.466735,0.733975,0.613113,1.392875,-21.825001,-8.850000,-38.568752,-158.147,5.614,29.623,,walk
2025-10-18T17:49:50.476665,2101,41,-0.760950,4.711950,7.315050,-0.248537,-0.041756,-0.093342,-0.512413,4.753706,7.408392,0.954525,0.631262,1.612875,-21.356251,-8.831250,-38.831253,-153.088,4.998,32.787,,walk
2025-10-18T17:49:50.526634,2151,42,-0.703950,4.846050,7.219050,-0.241864,-0.033438,-0.150049,-0.462086,4.879488,7.369099,0.874637,0.529375,1.523363,-20.868752,-8.606251,-39.187500,-150.268,4.629,33.873,,walk
2025-10-18T17:49:50.576448,2200,43,-0.531000,4.672950,8.233951,-0.189184,-0.056741,-0.183743,-0.341816,4.729691,8.417694,0.557150,0.264275,1.213575,-20.587502,-8.362500,-39.412502,-153.035,3.210,29.576,,walk
2025-10-18T17:49:50.626319,2250,44,-0.531000,4.443000,9.172951,-0.128417,-0.083671,-0.135347,-0.402583,4.526671,9.308298,0.132825,0.032313,0.750612,-20.268751,-7.912500,-39.618752,-156.567,2.982,25.844,,walk
2025-10-18T17:49:50.676368,2300,45,-0.415950,4.003050,9.211050,-0.054496,-0.065192,-0.143758,-0.361454,4.068242,9.354808,-0.228525,-0.136125,0.324225,-20.212502,-7.575000,-39.675003,-158.687,2.372,23.489,,walk
2025-10-18T17:49:50.726302,2350,46,-0.340050,2.854050,7.698000,0.065818,-0.017479,-0.242891,-0.405868,2.871529,7.940891,-0.646662,-0.330963,-0.179438,-19.968750,-7.312500,-39.731251,-162.870,2.372,20.342,,walk
2025-10-18T17:49:50.776264,2400,47,-0.109950,1.780950,5.610000,0.093696,-0.036925,-0.334836,-0.203646,1.817875,5.944836,-0.816612,-0.411950,-0.375787,-19.143751,-7.518750,-39.825001,-166.500,1.070,17.613,,walk
2025-10-18T17:49:50.826351,2450,48,-0.876000,0.076050,1.606950,0.062632,-0.152359,-0.519541,-0.938632,0.228409,2.126491,-0.922763,-0.483450,-1.007600,-16.237501,-8.512501,-39.637501,167.729,28.569,2.710,,walk
2025-10-18T17:49:50.876328,2500,49,-4.648950,-0.153000,-0.672000,-0.069120,-0.250107,-0.728426,-4.579830,0.097107,0.056426,-0.728887,0.135163,-2.269162,-13.443750,-9.150001,-39.150002,-165.402,81.567,-167.174,,walk
2025-10-18T17:49:50.926267,2550,50,-8.959050,-1.168050,1.606950,-0.481212,-0.405625,-0.816111,-8.477838,-0.762425,2.423061,-0.476025,4.619312,-4.762725,-9.600000,-8.662500,-39.037502,170.861,77.497,-36.012,,walk
2025-10-18T17:49:50.976408,2600,51,-8.806050,-2.451000,7.219050,-0.694642,-0.546715,-0.570941,-8.111408,-1.904285,7.789991,-0.513563,5.954025,-5.531350,-7.237500,-7.481250,-39.168751,158.448,49.116,-18.753,,walk
2025-10-18T17:49:51.026373,2650,52,-4.017000,-4.117950,6.241951,-0.652023,-0.796534,-0.284226,-3.364977,-3.321416,6.526177,0.057475,5.141675,-5.005550,-2.887500,-5.906250,-38.812500,132.268,28.244,-33.414,,walk
2025-10-18T17:49:51.105364,2729,53,-8.230950,-4.672950,-2.107950,-0.712296,-1.065207,-0.736594,-7.518654,-3.607743,-1.371356,0.960850,0.352000,-3.457162,0.618750,-5.062500,-37.912502,152.380,58.085,-114.280,,walk
2025-10-18T17:49:51.207217,2831,54,-9.994050,-4.768950,-1.360950,-0.819117,-1.107526,-0.825222,-9.174933,-3.661425,-0.535728,0.817437,0.277337,-3.149437,6.150000,-3.150000,-36.243752,146.172,63.608,-105.928,,walk
2025-10-18T17:49:51.226252,2850,55,-14.629050,-6.817950,4.920000,-1.460196,-1.319707,-0.711227,-13.168854,-5.498243,5.631227,-2.607687,1.123788,-0.331925,14.625001,1.443750,-33.750000,133.600,60.113,-54.185,,walk
2025-10-18T17:49:51.276305,2900,56,-16.486950,-6.703050,5.341950,-1.764377,-1.379542,-0.620715,-14.722573,-5.323508,5.962665,-3.245825,-0.285313,1.195975,17.756250,3.431250,-32.906250,133.608,62.531,-51.447,,walk
2025-10-18T17:49:51.326350,2950,57,-15.261001,-6.646050,4.690950,-1.864609,-1.347889,-0.549380,-13.396392,-5.298162,5.240330,-3.088113,-1.420512,1.417900,21.862501,6.506250,-31.856251,126.319,61.940,-54.785,,walk
2025-10-18T17:49:51.377401,3001,58,-12.522000,-5.017950,3.310950,-1.787063,-1.174649,-0.399081,-10.734937,-3.843301,3.710031,-2.965462,-2.386038,1.243963,23.493752,8.962501,-31.368752,126.953,64.354,-56.582,,walk
2025-10-18T17:49:51.427701,3052,59,-11.430000,-4.750050,1.971000,-1.685042,-0.990783,-0.263689,-9.744958,-3.759267,2.234689,-2.942363,-2.001312,1.070438,23.962502,13.275001,-31.218752,124.689,65.775,-67.464,,walk
2025-10-18T17:49:51.476432,3100,60,-9.744000,-5.707050,1.128000,-1.196953,-0.831446,-0.025291,-8.547047,-4.875604,1.153291,-1.755188,-0.458288,0.442887,23.587502,15.975000,-31.443750,114.584,59.162,-78.820,,walk
2025-10-18T17:49:51.528094,3152,61,-4.534950,-8.638050,4.671000,-0.395319,-0.879631,0.068017,-4.139631,-7.758419,4.602983,0.297688,0.606100,-0.966762,23.362501,18.581251,-31.200001,71.778,24.788,-61.598,,walk
2025-10-18T17:49:51.576488,3200,62,-3.346950,-8.140050,4.651950,-0.042970,-0.827454,-0.106341,-3.303980,-7.312596,4.758291,1.510850,0.847550,-2.203575,23.437500,19.350000,-30.937502,62.621,19.646,-60.253,,walk
2025-10-18T17:49:51.628273,3252,63,-5.338950,-3.868950,0.859950,-0.043362,-0.485394,-0.275803,-5.295588,-3.383556,1.135753,2.385900,0.992750,-3.427875,22.537500,20.456251,-31.181252,110.298,53.412,-77.469,,walk
2025-10-18T17:49:51.678297,3302,64,-4.744950,-2.833950,0.879000,0.017293,-0.226886,-0.105031,-4.762243,-2.607064,0.984031,2.348225,0.941188,-3.293125,21.206251,21.431252,-32.062500,120.502,57.981,-72.768,,walk
2025-10-18T17:49:51.727413,3351,65,-4.918050,-1.627050,4.939950,0.372866,0.065176,0.244026,-5.290916,-1.692226,4.695924,1.210688,-0.191400,-0.682825,18.843750,22.218750,-33.731251,-135.297,43.398,-18.230,,walk
2025-10-18T17:49:51.776474,3400,66,-6.640950,-0.421050,5.667000,0.589136,0.285274,0.267819,-7.230086,-0.706324,5.399181,-0.327525,-1.605587,2.587475,17.362501,22.275002,-34.875000,-127.874,49.447,-4.249,,walk
2025-10-18T17:49:51.826403,3450,67,-9.055051,-0.900000,5.514000,0.720590,0.550993,0.170776,-9.775641,-1.450993,5.343224,-1.605725,-2.825900,5.733888,15.862500,21.862501,-36.262501,-144.059,58.325,-9.270,,walk
2025-10-18T17:49:51.876466,3500,68,-9.475950,-3.121050,6.490950,0.788297,0.557660,0.159157,-10.264247,-3.678710,6.331793,-1.873300,-2.814900,5.701025,15.206250,21.431252,-37.012501,-167.850,52.763,-25.680,,walk
2025-10-18T17:49:51.926512,3550,69,-9.571951,-5.017950,7.545001,0.748040,0.417243,0.259929,-10.319991,-5.435193,7.285072,-0.791175,-1.228150,2.416975,14.756250,20.606251,-37.818752,169.615,46.570,-33.627,,walk
2025-10-18T17:49:51.976725,3601,70,-7.561050,-6.013950,6.510000,0.699295,0.249883,0.322360,-8.260345,-6.263833,6.187640,0.105325,-0.440688,-0.307175,14.868751,19.875000,-38.118752,139.112,40.469,-42.732,,walk
2025-10-18T17:49:52.026612,3651,71,-6.258000,-5.362950,6.394950,0.676345,0.062223,0.450070,-6.934345,-5.425173,5.944880,1.349700,0.608163,-3.035588,15.300000,18.675001,-38.400002,133.615,36.863,-39.984,,walk
2025-10-18T17:49:52.078438,3702,72,-4.228050,-4.078950,5.610000,0.613517,0.149932,0.516320,-4.841567,-4.228882,5.093680,2.344100,1.022725,-4.266350,15.318750,17.887501,-38.718750,126.200,31.365,-36.020,,walk
2025-10-18T17:49:52.127282,3751,73,-3.442950,-3.178950,5.341950,0.459361,0.342053,0.394503,-3.902311,-3.521003,4.947447,2.737212,1.088725,-4.384050,15.225000,16.612501,-39.168751,128.878,28.980,-30.757,,walk
2025-10-18T17:49:52.176414,3800,74,-2.905950,-2.719050,4.192950,0.271983,0.501414,0.203301,-3.177933,-3.220464,3.989649,2.528213,0.806025,-3.252425,15.206250,15.787500,-39.487503,125.251,30.178,-32.963,,walk
2025-10-18T17:49:52.227206,3851,75,-3.270000,-3.178950,2.698950,0.273786,0.386302,0.213479,-3.543786,-3.565252,2.485471,2.061812,0.601012,-2.506075,15.356251,14.718751,-39.693752,119.982,38.102,-49.669,,walk
2025-10-18T17:49:52.276702,3901,76,-9.093000,-2.527950,2.986050,-0.035052,0.210047,0.194929,-9.057948,-2.737997,2.791121,-0.146025,0.357087,0.691625,15.675000,14.043751,-39.768753,163.926,66.719,-40.251,,walk
2025-10-18T17:49:52.327143,3951,77,-12.330001,-2.145000,3.388050,-0.350455,0.112851,0.070290,-11.979546,-2.257851,3.317760,-1.613425,0.856212,2.561763,16.500000,13.031251,-39.787502,173.093,71.984,-32.338,,walk
2025-10-18T17:49:52.376855,4001,78,-9.246000,-3.639000,4.576050,-0.459467,-0.099208,-0.016803,-8.786533,-3.539792,4.592853,-2.602737,1.266650,3.902387,16.950001,12.450001,-39.768753,153.203,57.693,-38.493,,walk
2025-10-18T17:49:52.427954,4052,79,-7.618051,-3.178950,4.710000,-0.259813,-0.187605,-0.046507,-7.358238,-2.991345,4.756507,-2.112688,1.221687,3.217638,17.100000,11.625000,-39.937500,152.399,53.280,-34.017,,walk
2025-10-18T17:49:52.476642,4101,80,-5.032950,-4.078950,6.702000,0.117438,-0.136097,-0.063386,-5.150388,-3.942853,6.765386,-0.464475,-0.079475,0.776462,17.062500,11.062500,-40.125000,119.521,32.680,-31.325,,walk
2025-10-18T17:49:52.529287,4153,81,-5.416050,-5.668950,6.280050,0.321905,-0.063948,-0.081175,-5.737955,-5.605002,6.361225,0.945862,-1.228837,-1.587162,17.231251,10.537500,-40.237503,108.789,32.626,-42.072,,walk
2025-10-18T17:49:52.576845,4201,82,-7.081950,-7.240050,4.384050,0.236866,-0.088542,-0.117002,-7.318816,-7.151508,4.501052,1.752162,-0.958512,-3.234825,17.700001,10.556251,-40.012501,111.643,39.920,-58.804,,walk
2025-10-18T17:49:52.627502,4251,83,-8.940001,-7.546051,2.410950,-0.053640,-0.190337,-0.279829,-8.886361,-7.355714,2.690779,1.487750,0.446050,-3.819200,18.881250,11.137501,-39.187500,115.761,48.455,-72.281,,walk
2025-10-18T17:49:52.677039,4301,84,-7.657050,-6.531000,1.147050,-0.194015,-0.249709,-0.390456,-7.463035,-6.281291,1.537506,0.487850,1.543712,-3.107500,19.762501,11.812500,-38.325001,113.216,49.108,-80.039,,walk
2025-10-18T17:49:52.727086,4351,85,-5.146950,-6.933001,0.381000,-0.254626,-0.345185,-0.476044,-4.892324,-6.587816,0.857044,-1.332100,2.130975,-1.035787,21.150002,13.181251,-36.862503,96.829,36.548,-86.854,,walk
2025-10-18T17:49:52.777024,4401,86,-5.146950,-8.370001,1.722000,-0.259499,-0.483163,-0.438401,-4.887451,-7.886838,2.160401,-1.477575,2.118600,-0.615450,22.125000,14.231251,-35.700001,89.202,31.061,-78.374,,walk
2025-10-18T17:49:52.826712,4451,87,-4.420050,-8.158951,1.165950,-0.199617,-0.598019,-0.315108,-4.220433,-7.560932,1.481058,-0.313637,2.283050,-1.239838,23.681252,15.862500,-33.918751,82.823,28.204,-81.867,,walk
2025-10-18T17:49:52.877370,4501,88,-4.056000,-6.550050,0.610950,0.079695,-0.601943,-0.294016,-4.135695,-5.948107,0.904966,0.616962,2.391675,-1.750100,24.581251,16.875000,-32.718750,84.505,31.656,-84.671,,walk
2025-10-18T17:49:52.926895,4551,89,-3.730050,-6.397050,0.304050,0.596119,-0.563260,-0.373327,-4.326169,-5.833790,0.677377,1.144688,2.118187,-1.844975,25.781252,18.281250,-31.031252,80.279,30.218,-87.279,,walk
2025-10-18T17:49:52.976827,4601,90,-3.807000,-6.415950,0.228000,0.697756,-0.517078,-0.452135,-4.504756,-5.898872,0.680135,0.701662,1.482800,-1.321100,26.550001,19.181252,-30.018751,78.984,30.668,-87.965,,walk
2025-10-18T17:49:53.027920,4652,91,-2.983050,-9.040051,-0.384000,0.622932,-0.572093,-0.559345,-3.605982,-8.467957,0.175345,-0.308275,0.533775,-0.703313,27.581251,20.831251,-28.537500,64.747,18.247,-92.432,,walk
2025-10-18T17:49:53.078083,4702,92,-2.830050,-11.320050,-1.036050,0.474827,-0.753406,-0.773139,-3.304877,-10.566644,-0.262911,-0.836000,0.279263,-0.936650,28.125002,22.218750,-27.337502,59.563,13.980,-95.229,,walk
2025-10-18T17:49:53.130083,4754,93,-3.807000,-10.822050,-0.997050,0.387649,-0.747487,-0.854729,-4.194649,-10.074563,-0.142321,-0.881513,0.259187,-1.160362,28.631250,24.375002,-25.612501,62.560,19.305,-95.264,,walk
2025-10-18T17:49:53.176833,4801,94,-3.901950,-10.936050,1.069950,0.392426,-0.597710,-0.681422,-4.294376,-10.338340,1.751372,-0.444537,0.153038,-1.079100,28.668751,25.443750,-24.693750,58.187,19.550,-84.412,,walk
2025-10-18T17:49:53.227068,4851,95,-2.121000,-12.660001,1.492050,0.559669,-0.623100,-0.500659,-2.680669,-12.036901,1.992709,-0.012788,-0.011000,-0.811525,28.068750,26.568750,-24.131250,46.617,9.447,-83.278,,walk
2025-10-18T17:49:53.276909,4901,96,0.636000,-9.078000,2.065950,0.790912,-0.558997,-0.232114,-0.154912,-8.519003,2.298064,0.843562,0.330413,-0.824175,27.487501,27.262501,-23.962502,27.976,-3.908,-77.179,,walk
2025-10-18T17:49:53.327095,4951,97,-1.105950,-7.278000,2.986050,0.740621,-0.402905,-0.050478,-1.846571,-6.875095,3.036528,1.459013,0.927300,-1.074150,26.718752,28.143751,-23.868752,32.300,8.003,-67.692,,walk
2025-10-18T17:49:53.376508,5000,98,-3.826050,-8.791050,2.584050,0.509233,-0.203187,0.068542,-4.335283,-8.587863,2.515508,1.790388,1.375825,-1.066862,26.193750,28.593752,-23.962502,56.807,22.663,-73.620,,walk
2025-10-18T17:49:53.429413,5053,99,-3.366000,-8.944051,1.606950,0.375690,-0.162814,0.072800,-3.741690,-8.781237,1.534150,1.573275,0.960300,-0.511638,25.537500,28.968752,-24.243752,59.140,20.325,-79.815,,walk
2025-10-18T17:49:53.476552,5100,100,-2.638050,-8.407950,1.434000,0.269049,-0.200102,0.078248,-2.907099,-8.207848,1.355752,0.393387,-0.987938,1.060950,24.431252,29.456251,-24.806252,57.902,17.186,-80.321,,walk
2025-10-18T17:49:53.527803,5152,101,-2.811000,-8.715000,0.936000,0.198634,-0.258172,0.085725,-3.009634,-8.456828,0.850275,-0.974875,-2.358675,1.840025,23.268751,29.850000,-25.518751,62.874,17.781,-83.870,,walk
2025-10-18T17:49:53.576654,5201,102,-2.791050,-8.560950,1.090050,0.172320,-0.256753,0.102656,-2.963370,-8.304197,0.987394,-1.372663,-2.184187,1.498338,22.556252,30.056252,-25.818750,63.790,17.922,-82.744,,walk
2025-10-18T17:49:53.628277,5252,103,-3.807000,-8.695050,1.090050,0.060892,-0.088842,0.142700,-3.867892,-8.606208,0.947350,-1.258263,-1.197350,0.486887,21.712502,30.075001,-26.343752,71.903,23.482,-82.854,,walk
2025-10-18T17:49:53.678003,5302,104,-4.630050,-8.503950,1.318950,-0.041732,0.079118,0.204368,-4.588318,-8.583068,1.114582,-0.929362,-0.918638,0.319550,21.187500,29.812502,-26.868752,78.343,28.281,-81.184,,walk
2025-10-18T17:49:53.728001,5352,105,-4.495950,-9.385051,1.626000,-0.061071,0.135310,0.238159,-4.434879,-9.520361,1.387841,-0.634013,-1.282462,0.717613,20.306252,29.268751,-27.900002,77.199,25.268,-80.171,,walk
2025-10-18T17:49:53.777147,5401,106,-4.189950,-10.303950,2.239050,-0.044718,0.112028,0.210582,-4.145232,-10.415978,2.028468,-0.464612,-1.406075,0.866938,19.650002,29.043751,-28.593752,74.017,21.671,-77.740,,walk
2025-10-18T17:49:53.826569,5451,107,-1.297050,-11.224051,3.426000,-0.051516,0.124808,0.221667,-1.245534,-11.348859,3.204333,0.248050,-0.592350,0.084425,19.012501,28.856251,-29.175001,53.631,6.307,-73.026,,walk
2025-10-18T17:49:53.876597,5501,108,0.769950,-11.569051,3.618000,-0.042453,-0.005344,0.223296,0.812403,-11.563707,3.394704,0.915750,0.515075,-1.021625,18.750000,28.743752,-29.400002,41.633,-3.634,-72.634,,walk
2025-10-18T17:49:53.926638,5551,109,1.057950,-11.511001,3.388050,-0.005375,-0.099287,0.205197,1.063325,-11.411714,3.182853,1.166275,1.104675,-1.605037,18.600000,28.781252,-29.493752,41.204,-5.039,-73.599,,walk
2025-10-18T17:49:53.976895,5601,110,1.057950,-11.511001,3.388050,-0.005375,-0.099287,0.205197,1.063325,-11.411714,3.182853,1.166275,1.104675,-1.605037,18.600000,28.781252,-29.493752,41.204,-5.039,-73.599,,walk
2025-10-18T17:49:54.445147,6069,111,1.057950,-11.511001,3.388050,-0.005375,-0.099287,0.205197,1.063325,-11.411714,3.182853,1.166275,1.104675,-1.605037,18.600000,28.781252,-29.493752,41.204,-5.039,-73.599,,walk
2025-10-18T17:49:54.478698,6103,112,-2.350950,-9.078000,1.051050,-0.005375,-0.099287,0.205197,-2.345575,-8.978713,0.845853,1.166275,1.104675,-1.605037,17.718750,29.981251,-28.912500,70.899,14.427,-83.396,,walk
2025-10-18T17:49:54.528451,6152,113,-0.148050,-9.844951,1.875000,0.350512,-0.336236,-0.033596,-0.498562,-9.508715,1.908596,-0.896225,0.390775,0.378400,18.431252,31.462502,-26.606251,48.679,0.846,-79.217,,walk
2025-10-18T17:49:54.578554,6202,114,-1.909950,-7.489050,3.024000,0.374109,-0.158899,0.059404,-2.284059,-7.330151,2.964596,-0.511775,0.913550,0.277337,18.881250,32.268753,-25.312502,49.683,13.305,-68.012,,walk
2025-10-18T17:49:54.628273,6252,115,-2.485050,-7.813951,2.851950,0.352913,-0.085226,0.080217,-2.837963,-7.728725,2.771733,-0.140388,1.094775,0.101475,18.881250,32.268753,-25.312502,57.150,16.634,-69.949,,walk
2025-10-18T17:49:54.678408,6302,116,-2.485050,-7.813951,2.851950,0.352913,-0.085226,0.080217,-2.837963,-7.728725,2.771733,-0.140388,1.094775,0.101475,18.881250,32.268753,-25.312502,57.150,16.634,-69.949,,walk
2025-10-18T17:49:54.739858,6364,117,-0.397050,-8.560950,0.820950,0.088703,0.194833,-0.231460,-0.485753,-8.755783,1.052410,0.220962,-0.742775,0.441512,20.400002,33.618752,-22.968750,46.792,2.643,-84.522,,walk
2025-10-18T17:49:54.778330,6402,118,-0.685050,-8.485050,0.820950,0.004680,0.210977,-0.168006,-0.689730,-8.696027,0.988956,0.220962,-0.742775,0.441512,20.587502,33.787502,-22.725000,48.225,4.594,-84.474,,walk
2025-10-18T17:49:54.866679,6491,119,-0.685050,-8.485050,0.820950,0.004680,0.210977,-0.168006,-0.689730,-8.696027,0.988956,0.220962,-0.742775,0.441512,20.587502,33.787502,-22.725000,48.225,4.594,-84.474,,walk
2025-10-18T17:49:54.879552,6503,120,-3.079050,-8.829000,0.571950,-0.089609,0.372539,-0.010789,-2.989441,-9.201539,0.582739,-1.039775,-1.674338,0.214225,21.337502,34.125000,-21.937500,63.062,19.189,-86.294,,walk
2025-10-18T17:49:54.928740,6553,121,-3.270000,-9.174001,0.802050,-0.216187,0.306174,-0.043689,-3.053813,-9.480175,0.845739,-0.768625,-1.757937,0.640612,21.487501,33.787502,-22.143751,62.824,19.549,-85.004,,walk
2025-10-18T17:49:54.978764,6603,122,-3.001950,-10.285050,1.224000,-0.193880,0.022959,-0.136626,-2.808070,-10.308009,1.360626,-0.340313,-1.842775,1.147437,21.562500,33.318752,-22.575001,58.514,16.163,-83.213,,walk
2025-10-18T17:49:55.029724,6654,123,-2.503950,-10.764001,1.165950,-0.100179,-0.064575,-0.144859,-2.403771,-10.699426,1.310809,-0.206113,-1.573000,0.973225,21.206251,32.662502,-23.812500,57.810,13.022,-83.818,,walk
2025-10-18T17:49:55.078783,6703,124,-2.370000,-10.591950,1.281000,-0.118480,-0.099573,-0.033251,-2.251520,-10.492377,1.314251,0.010450,-0.733562,0.187688,20.550001,32.100002,-25.068750,59.537,12.524,-83.104,,walk
2025-10-18T17:49:55.128731,6753,125,-2.485050,-10.170000,2.257950,-0.175646,-0.140531,0.046052,-2.309404,-10.029469,2.211898,0.278987,-0.217387,-0.259600,20.156250,31.743752,-25.856251,58.539,13.417,-77.482,,walk
2025-10-18T17:49:55.178910,6803,126,-0.148050,-10.956000,2.851950,0.032117,-0.150096,0.064948,-0.180167,-10.805904,2.787002,0.579425,0.427487,-0.783200,19.837502,31.425001,-26.643751,42.913,0.749,-75.409,,walk
2025-10-18T17:49:55.230945,6855,127,0.559950,-11.664001,2.277000,0.094992,-0.187800,0.153433,0.464958,-11.476201,2.123567,0.771650,0.868175,-1.125850,19.368752,31.331251,-27.281252,43.892,-2.698,-78.954,,walk
2025-10-18T17:49:55.278833,6903,128,-0.301050,-10.879050,1.855950,0.088166,-0.265253,0.153496,-0.389216,-10.613797,1.702454,0.753088,1.450900,-1.519238,19.068750,31.443750,-27.525002,50.670,1.563,-80.319,,walk
2025-10-18T17:49:55.330426,6954,129,-1.278000,-8.772000,0.936000,0.076036,-0.194063,0.116462,-1.354036,-8.577937,0.819538,0.260150,1.438800,-1.314500,18.712502,31.800001,-27.412500,60.954,8.243,-83.909,,walk
2025-10-18T17:49:55.378722,7003,130,-1.393050,-7.584001,0.571950,0.051207,-0.091085,0.084231,-1.444257,-7.492916,0.487719,-0.135575,1.115813,-0.782788,18.618752,32.100002,-27.000002,63.867,10.379,-85.687,,walk
2025-10-18T17:49:55.428398,7052,131,-1.354950,-6.129000,0.304050,0.067599,0.043663,0.049193,-1.422549,-6.172663,0.254857,-0.486337,0.579838,-0.046750,18.637501,32.437500,-26.493752,66.150,12.451,-87.160,,walk
2025-10-18T17:49:55.478418,7102,132,-1.354950,-6.129000,0.304050,0.067599,0.043663,0.049193,-1.422549,-6.172663,0.254857,-0.486337,0.579838,-0.046750,18.637501,32.437500,-26.493752,66.150,12.451,-87.160,,walk
2025-10-18T17:49:55.953018,7577,133,-1.354950,-6.129000,0.304050,0.067599,0.043663,0.049193,-1.422549,-6.172663,0.254857,-0.486337,0.579838,-0.046750,18.637501,32.437500,-26.493752,66.150,12.451,-87.160,,walk
2025-10-18T17:49:55.981547,7605,134,-0.052050,-8.293051,-0.040050,0.219990,0.324020,-0.177551,-0.272040,-8.617071,0.137501,-0.806575,-0.081813,0.303050,19.443750,34.218750,-23.381250,50.809,0.360,-90.277,,walk
2025-10-18T17:49:56.022944,7647,135,-0.664950,-8.178000,0.667950,0.218031,0.306663,-0.194134,-0.882981,-8.484663,0.862084,-0.392287,0.428313,-0.244475,19.650002,34.725002,-22.818750,50.369,4.633,-85.331,,walk
2025-10-18T17:49:56.073,7697,136,-1.776000,-8.868000,0.055050,0.028104,0.311348,-0.260053,-1.804104,-9.179348,0.315103,0.225362,0.664950,-0.582862,19.725000,35.006252,-22.537500,59.923,11.325,-89.644,,walk
2025-10-18T17:49:56.122726,7747,137,-1.776000,-8.868000,0.055050,0.028104,0.311348,-0.260053,-1.804104,-9.179348,0.315103,0.225362,0.664950,-0.582862,19.725000,35.006252,-22.537500,59.923,11.325,-89.644,,walk
2025-10-18T17:49:56.172878,7797,138,-1.776000,-8.868000,0.055050,0.028104,0.311348,-0.260053,-1.804104,-9.179348,0.315103,0.225362,0.664950,-0.582862,19.725000,35.006252,-22.537500,59.923,11.325,-89.644,,walk
2025-10-18T17:49:56.222493,7846,139,-3.883050,-9.960000,0.534000,-0.258741,-0.245045,-0.024530,-3.624309,-9.714955,0.558530,-0.313363,-2.704900,1.126812,18.862501,35.043751,-23.118752,70.853,21.271,-86.931,,walk
2025-10-18T17:49:56.272856,7897,140,-3.499950,-10.303950,0.553050,-0.261126,-0.305342,0.005869,-3.238824,-9.998608,0.547181,-0.474650,-2.930950,1.266788,18.693750,34.912502,-23.381250,68.768,18.736,-86.928,,walk
2025-10-18T17:49:56.322837,7947,141,-3.499950,-10.303950,0.553050,-0.261126,-0.305342,0.005869,-3.238824,-9.998608,0.547181,-0.474650,-2.930950,1.266788,18.693750,34.912502,-23.381250,68.768,18.736,-86.928,,walk
2025-10-18T17:49:56.877175,8501,142,-3.499950,-10.303950,0.553050,-0.261126,-0.305342,0.005869,-3.238824,-9.998608,0.547181,-0.474650,-2.930950,1.266788,18.693750,34.912502,-23.381250,68.768,18.736,-86.928,,walk
2025-10-18T17:49:56.912685,8537,143,-3.595950,-9.442050,-3.199950,-0.205079,-0.282571,-0.327477,-3.390871,-9.159479,-2.872473,-0.366025,1.551137,-0.432438,17.981251,34.031250,-24.656252,77.533,19.834,-108.722,,walk
2025-10-18T17:49:56.961413,8585,144,-2.638050,-11.473050,-0.307950,-0.112581,-0.210882,-0.250616,-2.525469,-11.262168,-0.057334,-1.420925,0.963600,0.182600,18.187500,33.975002,-24.337502,66.842,12.945,-91.538,,walk
2025-10-18T17:49:57.011379,8635,145,-1.258950,-12.565050,-0.364950,-0.021105,-0.248411,-0.232653,-1.237845,-12.316639,-0.132297,-1.481287,1.203950,0.188513,18.187500,33.975002,-24.337502,59.872,5.719,-91.664,,walk
2025-10-18T17:49:57.061425,8685,146,-1.258950,-12.565050,-0.364950,-0.021105,-0.248411,-0.232653,-1.237845,-12.316639,-0.132297,-1.481287,1.203950,0.188513,18.187500,33.975002,-24.337502,59.872,5.719,-91.664,,walk
2025-10-18T17:49:57.113229,8737,147,-2.025000,-9.021001,2.314950,-0.021105,-0.248411,-0.232653,-2.003895,-8.772590,2.547603,-1.481287,1.203950,0.188513,18.787500,34.387501,-22.687500,51.124,12.267,-75.607,,walk
2025-10-18T17:49:57.161392,8785,148,-2.025000,-9.021001,2.314950,-0.021105,-0.248411,-0.232653,-2.003895,-8.772590,2.547603,-1.481287,1.203950,0.188513,18.787500,34.387501,-22.687500,51.124,12.267,-75.607,,walk
2025-10-18T17:49:57.211678,8836,149,-2.025000,-9.021001,2.314950,-0.021105,-0.248411,-0.232653,-2.003895,-8.772590,2.547603,-1.481287,1.203950,0.188513,18.787500,34.387501,-22.687500,51.124,12.267,-75.607,,walk
2025-10-18T17:49:58.096797,9721,150,-2.025000,-9.021001,2.314950,-0.021105,-0.248411,-0.232653,-2.003895,-8.772590,2.547603,-1.481287,1.203950,0.188513,18.787500,34.387501,-22.687500,51.124,12.267,-75.607,,walk
2025-10-18T17:49:58.100068,9724,151,-2.025000,-9.021001,2.314950,-0.021105,-0.248411,-0.232653,-2.003895,-8.772590,2.547603,-1.481287,1.203950,0.188513,18.787500,34.387501,-22.687500,51.124,12.267,-75.607,,walk
2025-10-18T17:49:58.158391,9782,152,-2.332050,-10.707001,-3.966000,-0.084184,0.086624,-0.304667,-2.247866,-10.793625,-3.661333,-0.004400,0.002337,-0.000962,21.375000,35.962502,-17.681252,62.011,11.544,-110.325,,walk
2025-10-18T17:49:58.199266,9823,153,-1.948950,-11.971050,-0.672000,-0.195829,-0.051836,-0.384832,-1.753121,-11.919214,-0.287168,0.000000,-0.004812,-0.004950,22.125000,36.637501,-15.637501,47.383,9.233,-93.213,,walk
2025-10-18T17:49:58.249590,9874,154,-0.856950,-12.469050,-0.556950,-0.125517,-0.133415,-0.384452,-0.731433,-12.335635,-0.172498,-0.001237,-0.003437,-0.000137,22.125000,36.637501,-15.637501,41.733,3.928,-92.558,,walk
2025-10-18T17:49:58.299491,9923,155,-0.856950,-12.469050,-0.556950,-0.125517,-0.133415,-0.384452,-0.731433,-12.335635,-0.172498,-0.001237,-0.003437,-0.000137,22.125000,36.637501,-15.637501,41.733,3.928,-92.558,,walk
2025-10-18T17:49:58.359799,9984,156,-2.983050,-9.615001,1.894050,-0.074351,0.022630,-0.135202,-2.908699,-9.637631,2.029252,0.000000,0.000000,0.000000,20.962502,36.975002,-15.412500,40.532,16.930,-78.856,,walk
2025-10-18T17:49:58.399718,10024,157,-2.905950,-10.075050,1.759950,-0.095063,0.010139,0.208275,-2.810887,-10.085189,1.551675,2.789737,2.817787,-0.313637,20.756250,37.050003,-15.450001,41.345,15.861,-80.091,,walk
2025-10-18T17:49:58.468186,10092,158,-2.905950,-10.075050,1.759950,-0.095063,0.010139,0.208275,-2.810887,-10.085189,1.551675,2.789737,2.817787,-0.313637,20.756250,37.050003,-15.450001,41.345,15.861,-80.091,,walk
2025-10-18T17:49:58.501074,10125,159,-0.301050,-8.656950,0.592050,0.269248,0.191578,0.441257,-0.570298,-8.848528,0.150793,0.229487,-0.760375,-0.051425,19.481251,37.256252,-16.125000,36.922,1.987,-86.088,,walk
2025-10-18T17:49:58.549439,10173,160,-1.087050,-8.503950,0.208950,0.231865,0.214248,0.469311,-1.318915,-8.718198,-0.260361,-0.349800,-1.282325,-0.306900,19.031250,37.293751,-16.425001,46.636,7.282,-88.592,,walk
2025-10-18T17:49:58.600209,10224,161,-1.872000,-8.868000,0.073950,0.116817,0.317845,0.315682,-1.988817,-9.185845,-0.241732,-0.545462,-1.641338,-0.272938,18.262501,37.368752,-16.912500,54.302,11.920,-89.522,,walk
2025-10-18T17:49:58.649371,10273,162,-1.815000,-9.213000,-0.231000,-0.036543,0.288087,0.209599,-1.778457,-9.501087,-0.440599,-0.518375,-2.104438,0.162663,17.737501,37.368752,-17.231251,56.502,11.141,-91.436,,walk
2025-10-18T17:49:58.699154,10323,163,-2.905950,-10.246950,0.055050,-0.161519,0.065506,0.039142,-2.744431,-10.312456,0.015908,-0.509987,-2.963537,1.035100,16.650002,37.050003,-18.881250,64.229,15.833,-89.692,,walk
2025-10-18T17:49:58.749550,10373,164,-2.830050,-10.668000,0.534000,-0.140975,0.004405,-0.001886,-2.689075,-10.672405,0.535886,-0.469287,-3.124963,1.256063,16.275002,36.937500,-19.481251,63.045,14.840,-87.134,,walk
2025-10-18T17:49:59.307824,10932,165,-2.830050,-10.668000,0.534000,-0.140975,0.004405,-0.001886,-2.689075,-10.672405,0.535886,-0.469287,-3.124963,1.256063,16.275002,36.937500,-19.481251,63.045,14.840,-87.134,,walk
2025-10-18T17:49:59.327354,10951,166,-2.542050,-11.971050,-5.671050,-0.123431,-0.229748,-0.456600,-2.418619,-11.741302,-5.214450,-0.002337,0.003437,0.002887,15.075001,36.581253,-21.393751,73.856,10.863,-115.348,,walk
2025-10-18T17:49:59.377891,11002,167,-1.930050,-11.224051,-4.905000,-0.130889,-0.215898,-0.557509,-1.799161,-11.008153,-4.347491,-0.002200,0.004125,0.002475,15.131250,36.637501,-21.225000,72.097,8.954,-113.606,,walk
2025-10-18T17:49:59.427560,11051,168,-1.221000,-10.687051,-3.238050,-0.123075,-0.190132,-0.542203,-1.097925,-10.496919,-2.695847,0.002612,0.000962,-0.004125,15.281251,36.656250,-21.056252,68.196,6.240,-106.856,,walk
2025-10-18T17:49:59.477630,11102,169,-1.221000,-10.687051,-3.238050,-0.123075,-0.190132,-0.542203,-1.097925,-10.496919,-2.695847,0.002612,0.000962,-0.004125,15.281251,36.656250,-21.056252,68.196,6.240,-106.856,,walk
2025-10-18T17:49:59.527663,11152,170,-1.221000,-10.687051,-3.238050,-0.123075,-0.190132,-0.542203,-1.097925,-10.496919,-2.695847,0.002612,0.000962,-0.004125,15.281251,36.656250,-21.056252,68.196,6.240,-106.856,,walk
2025-10-18T17:49:59.578118,11202,171,-2.083050,-8.695050,1.951950,0.236849,-0.051105,0.075003,-2.319899,-8.643945,1.876947,2.541000,2.910187,-0.413875,15.656251,37.031250,-19.537500,52.215,13.157,-77.347,,walk
2025-10-18T17:49:59.627883,11252,172,-2.083050,-8.695050,1.951950,0.236849,-0.051105,0.075003,-2.319899,-8.643945,1.876947,2.541000,2.910187,-0.413875,15.656251,37.125000,-19.293751,51.564,13.157,-77.347,,walk
2025-10-18T17:50:00.364958,11989,173,-2.083050,-8.695050,1.951950,0.236849,-0.051105,0.075003,-2.319899,-8.643945,1.876947,2.541000,2.910187,-0.413875,15.656251,37.125000,-19.293751,51.564,13.157,-77.347,,walk
2025-10-18T17:50:00.387065,12011,174,-0.742050,-5.899050,0.438000,0.164513,0.462677,0.549319,-0.906563,-6.361727,-0.111319,0.002062,-0.000962,-0.000275,16.518751,38.100002,-16.106251,46.514,7.150,-85.754,,walk
2025-10-18T17:50:00.435724,12060,175,0.042000,-5.133000,-0.154050,0.168067,0.556194,0.486711,-0.126067,-5.689194,-0.640761,-0.003712,-0.004675,-0.002200,16.950001,38.456253,-14.831250,42.857,-0.469,-91.719,,walk
2025-10-18T17:50:00.485168,12109,176,-1.450950,-7.852951,-3.372000,0.124698,0.636157,0.310577,-1.575648,-8.489108,-3.682577,-0.004950,-0.000825,0.001100,17.362501,38.831253,-13.650001,63.959,9.636,-113.238,,walk
2025-10-18T17:50:00.535185,12159,177,-1.450950,-7.852951,-3.372000,0.124698,0.636157,0.310577,-1.575648,-8.489108,-3.682577,-0.004950,-0.000825,0.001100,17.362501,38.831253,-13.650001,63.959,9.636,-113.238,,walk
2025-10-18T17:50:00.585182,12209,178,-1.450950,-7.852951,-3.372000,0.124698,0.636157,0.310577,-1.575648,-8.489108,-3.682577,-0.004950,-0.000825,0.001100,17.362501,38.831253,-13.650001,63.959,9.636,-113.238,,walk
2025-10-18T17:50:00.635161,12259,179,0.694050,-9.001950,-2.758950,-0.075420,-0.062298,-0.751805,0.769470,-8.939652,-2.007145,-2.625012,-1.815550,0.277475,17.681252,39.206253,-12.243751,49.786,-4.216,-107.039,,walk
2025-10-18T17:50:00.685306,12309,180,0.694050,-9.001950,-2.758950,-0.075420,-0.062298,-0.751805,0.769470,-8.939652,-2.007145,-2.625012,-1.815550,0.277475,17.681252,39.187500,-12.225000,49.758,-4.216,-107.039,,walk
2025-10-18T17:50:01.802948,13427,181,0.694050,-9.001950,-2.758950,-0.075420,-0.062298,-0.751805,0.769470,-8.939652,-2.007145,-2.625012,-1.815550,0.277475,17.681252,39.187500,-12.225000,49.758,-4.216,-107.039,,walk
2025-10-18T17:50:01.840252,13464,182,-3.577050,-10.936050,-7.030951,-0.209307,-0.597536,-0.488454,-3.367743,-10.338514,-6.542497,-0.003300,0.003437,-0.004812,17.943750,39.187500,-11.287500,67.389,15.383,-122.738,,walk
2025-10-18T17:50:01.878161,13502,183,-2.581050,-10.150950,-2.587050,-0.096778,-0.363206,-0.200940,-2.484272,-9.787744,-2.386110,-0.001512,-0.001512,-0.000962,18.187500,39.243752,-10.781250,57.913,13.841,-104.298,,walk
2025-10-18T17:50:01.927356,13551,184,0.157050,-12.852000,-1.036050,0.090592,-0.205589,0.248812,0.066458,-12.646411,-1.284862,0.002612,-0.001375,-0.001650,18.693750,39.112503,-10.481251,35.375,-0.698,-94.609,,walk
2025-10-18T17:50:01.977499,13601,185,0.157050,-12.852000,-1.036050,0.090592,-0.205589,0.248812,0.066458,-12.646411,-1.284862,0.002612,-0.001375,-0.001650,18.693750,39.112503,-10.481251,35.375,-0.698,-94.609,,walk
2025-10-18T17:50:02.027545,13651,186,0.157050,-12.852000,-1.036050,0.090592,-0.205589,0.248812,0.066458,-12.646411,-1.284862,0.002612,-0.001375,-0.001650,18.693750,39.112503,-10.481251,35.375,-0.698,-94.609,,walk
2025-10-18T17:50:02.077502,13701,187,-2.542050,-10.054951,2.028000,0.090592,-0.205589,0.248812,-2.632642,-9.849362,1.779188,0.002612,-0.001375,-0.001650,19.350000,38.681252,-11.268750,25.417,13.919,-78.597,,walk
2025-10-18T17:50:02.127632,13752,188,-2.542050,-10.054951,2.028000,0.090592,-0.205589,0.248812,-2.632642,-9.849362,1.779188,0.002612,-0.001375,-0.001650,19.350000,38.681252,-11.268750,25.417,13.919,-78.597,,walk
2025-10-18T17:50:02.223517,13847,189,-2.542050,-10.054951,2.028000,0.090592,-0.205589,0.248812,-2.632642,-9.849362,1.779188,0.002612,-0.001375,-0.001650,19.350000,38.681252,-11.268750,25.417,13.919,-78.597,,walk
2025-10-18T17:50:02.227676,13852,190,-2.542050,-10.054951,2.028000,0.090592,-0.205589,0.248812,-2.632642,-9.849362,1.779188,0.002612,-0.001375,-0.001650,19.350000,38.681252,-11.268750,25.417,13.919,-78.597,,walk
2025-10-18T17:50:02.277860,13902,191,-0.780000,-8.868000,0.189000,0.358047,0.294530,0.477127,-1.138047,-9.162530,-0.288127,-0.485512,-2.080375,0.009350,17.887501,38.025002,-15.618751,44.757,5.025,-88.779,,walk
2025-10-18T17:50:02.327662,13952,192,-1.891050,-9.652950,-0.268950,0.058330,0.354962,0.300062,-1.949380,-10.007912,-0.569012,-0.610775,-1.919912,-0.188650,16.781250,37.725002,-17.268751,58.208,11.080,-91.596,,walk
2025-10-18T17:50:02.380098,14004,193,-1.872000,-9.940050,-0.231000,-0.183591,0.262843,0.120994,-1.688409,-10.202893,-0.351994,-0.537625,-2.100312,0.068613,16.068750,37.443752,-18.412500,60.548,10.663,-91.331,,walk
2025-10-18T17:50:02.427747,14052,194,-2.217000,-10.687051,-0.154050,-0.197929,0.111585,-0.074970,-2.019071,-10.798636,-0.079080,-0.385688,-2.932325,1.060675,14.868751,36.956253,-20.306252,65.997,11.718,-90.826,,walk
2025-10-18T17:50:02.477589,14102,195,-2.466000,-10.917001,0.630000,-0.340349,0.096230,-0.034322,-2.125651,-11.013231,0.664322,-0.404388,-3.252012,1.425050,13.950001,36.637501,-21.581251,68.036,12.708,-86.697,,walk
2025-10-18T17:50:02.527891,14152,196,-2.466000,-10.917001,0.630000,-0.340349,0.096230,-0.034322,-2.125651,-11.013231,0.664322,-0.404388,-3.252012,1.425050,13.950001,36.637501,-21.581251,68.036,12.708,-86.697,,walk
2025-10-18T17:50:02.738143,14362,197,-2.466000,-10.917001,0.630000,-0.340349,0.096230,-0.034322,-2.125651,-11.013231,0.664322,-0.404388,-3.252012,1.425050,13.950001,36.637501,-21.581251,68.036,12.708,-86.697,,walk
2025-10-18T17:50:02.777642,14402,198,-1.317000,-7.948050,0.112950,-0.153310,-0.199506,-0.016286,-1.163690,-7.748544,0.129236,0.098862,2.007912,-0.866800,10.725000,36.543751,-23.700001,74.757,9.408,-89.186,,walk
2025-10-18T17:50:02.829287,14453,199,-0.013950,-5.631000,-0.078000,-0.011699,0.090504,-0.025319,-0.002251,-5.721504,-0.052681,-0.239937,2.226263,-0.287100,10.743751,36.825001,-22.537500,65.144,0.142,-90.794,,walk
2025-10-18T17:50:02.879092,14503,200,0.061950,-5.515950,-0.862950,0.083899,0.264051,-0.031836,-0.021949,-5.780001,-0.831114,-0.398337,1.646837,0.230862,10.950001,36.993752,-21.600000,67.443,-0.636,-98.892,,walk
2025-10-18T17:50:02.929170,14553,201,-0.493050,-6.358950,-2.107950,0.135535,0.357761,-0.088807,-0.628585,-6.716711,-2.019143,-0.558800,1.398375,0.382937,11.437500,37.312500,-20.156250,72.569,4.209,-108.340,,walk
2025-10-18T17:50:02.977788,14602,202,-2.791050,-10.209001,-6.685950,0.094710,0.292947,-0.408991,-2.885760,-10.501948,-6.276959,-1.946450,-0.190850,0.377162,11.868751,37.556252,-19.143751,79.234,12.882,-123.221,,walk
2025-10-18T17:50:03.027589,14652,203,-2.466000,-10.840951,-7.069050,-0.001828,0.162652,-0.703651,-2.464172,-11.003603,-6.365399,-2.907575,-1.079925,0.110413,12.787500,38.062500,-17.268751,75.850,10.788,-123.107,,walk
2025-10-18T17:50:03.079081,14703,204,-2.217000,-11.109000,-4.942950,-0.080748,0.122194,-0.745701,-2.136252,-11.231194,-4.197249,-2.890525,-1.502187,0.181362,13.575001,38.381252,-15.843751,71.850,10.333,-113.987,,walk
2025-10-18T17:50:03.127593,14752,205,-2.466000,-11.626051,-2.107950,-0.306080,0.073578,-0.627608,-2.159920,-11.699629,-1.480342,-1.185387,-0.940775,0.373313,14.868751,38.906250,-13.743751,63.113,11.789,-100.277,,walk
2025-10-18T17:50:03.177828,14802,206,0.196050,-10.917001,-1.476000,-0.119502,0.050786,-0.500314,0.315552,-10.967787,-0.975686,0.328350,0.199512,0.326150,15.843751,39.187500,-12.337501,46.954,-1.020,-97.700,,walk
2025-10-18T17:50:03.227890,14852,207,1.516950,-8.925000,1.318950,0.024189,0.181832,-0.227856,1.492761,-9.106832,1.546806,2.291437,2.321825,0.116050,17.062500,39.581253,-10.687500,5.653,-9.544,-81.594,,walk
2025-10-18T17:50:03.280529,14904,208,-1.852950,-9.864000,1.108950,-0.122513,0.215656,-0.129363,-1.730437,-10.079656,1.238313,3.031050,3.490575,0.044275,17.681252,39.712502,-9.900001,28.522,10.574,-83.586,,walk
2025-10-18T17:50:03.328004,14952,209,-1.470000,-10.093950,-0.346050,-0.138981,0.136230,-0.011366,-1.331019,-10.230180,-0.334684,3.006575,3.937587,-0.052662,18.300001,39.525002,-9.825001,39.385,8.281,-91.963,,walk
2025-10-18T17:50:03.377460,15001,210,-0.358950,-9.289050,-0.327000,-0.083105,0.106424,-0.012159,-0.275845,-9.395474,-0.314841,2.711225,3.519175,-0.084425,18.300001,39.525002,-9.825001,33.623,2.212,-92.016,,walk
2025-10-18T17:50:03.427460,15051,211,-0.358950,-9.289050,-0.327000,-0.083105,0.106424,-0.012159,-0.275845,-9.395474,-0.314841,2.711225,3.519175,-0.084425,18.300001,39.525002,-9.825001,33.623,2.212,-92.016,,walk
2025-10-18T17:50:03.477803,15102,212,-0.052050,-8.676001,-0.001050,0.259371,0.032999,0.597611,-0.311421,-8.709000,-0.598661,-0.400675,-1.975600,-0.143825,18.300001,39.000000,-11.775001,33.113,0.344,-90.007,,walk
2025-10-18T17:50:03.527739,15152,213,-0.148050,-8.848950,-0.078000,0.269310,0.079519,0.664515,-0.417360,-8.928469,-0.742515,-0.554400,-2.121763,-0.254512,18.168751,38.925003,-12.131250,35.422,0.958,-90.505,,walk
2025-10-18T17:50:03.577593,15202,214,-0.148050,-8.848950,-0.078000,0.269310,0.079519,0.664515,-0.417360,-8.928469,-0.742515,-0.554400,-2.121763,-0.254512,18.168751,38.925003,-12.131250,35.422,0.958,-90.505,,walk
2025-10-18T17:50:04.232592,15857,215,-0.148050,-8.848950,-0.078000,0.269310,0.079519,0.664515,-0.417360,-8.928469,-0.742515,-0.554400,-2.121763,-0.254512,18.168751,38.925003,-12.131250,35.422,0.958,-90.505,,walk
2025-10-18T17:50:04.275202,15899,216,-2.848950,-10.591950,-5.938950,-0.262746,-0.075748,-0.636646,-2.586204,-10.516202,-5.302304,-0.000825,0.000962,0.001925,17.212502,37.912502,-15.356251,69.271,13.203,-119.280,,walk
2025-10-18T17:50:04.325315,15949,217,-1.162950,-10.630051,-3.352950,-0.268898,-0.153355,-0.558857,-0.894052,-10.476696,-2.794093,0.000962,0.002887,0.000550,17.175001,37.875000,-15.468751,60.864,5.956,-107.506,,walk
2025-10-18T17:50:04.375042,15999,218,-1.489050,-11.703001,-2.338050,-0.253438,-0.201857,-0.508366,-1.235612,-11.501144,-1.829684,0.004262,0.004537,0.004537,17.175001,37.875000,-15.468751,58.367,7.112,-101.298,,walk
2025-10-18T17:50:04.425125,16049,219,-1.489050,-11.703001,-2.338050,-0.253438,-0.201857,-0.508366,-1.235612,-11.501144,-1.829684,0.004262,0.004537,0.004537,17.175001,37.875000,-15.468751,58.367,7.112,-101.298,,walk
2025-10-18T17:50:04.476526,16100,220,1.134000,-9.021001,1.224000,-0.253438,-0.201857,-0.508366,1.387438,-8.819144,1.732366,0.004262,0.004537,0.004537,17.250000,37.706253,-15.506250,22.963,-7.100,-82.273,,walk
2025-10-18T17:50:04.525160,16149,221,1.134000,-9.021001,1.224000,-0.253438,-0.201857,-0.508366,1.387438,-8.819144,1.732366,0.004262,0.004537,0.004537,17.250000,37.706253,-15.506250,22.963,-7.100,-82.273,,walk
2025-10-18T17:50:04.635028,16259,222,1.134000,-9.021001,1.224000,-0.253438,-0.201857,-0.508366,1.387438,-8.819144,1.732366,0.004262,0.004537,0.004537,17.250000,37.706253,-15.506250,22.963,-7.100,-82.273,,walk
2025-10-18T17:50:04.681822,16306,223,-0.646050,-9.058950,-0.517950,0.263472,0.166337,0.612897,-0.909522,-9.225287,-1.130847,0.341137,-2.068550,0.825275,17.025002,37.687500,-15.862500,50.384,4.073,-93.272,,walk
2025-10-18T17:50:04.725847,16350,224,-0.895050,-8.599951,-0.250050,0.170010,0.227900,0.491160,-1.065060,-8.827851,-0.741210,-0.604863,-2.313300,0.396138,16.950001,37.725002,-15.975000,50.932,5.939,-91.665,,walk
2025-10-18T17:50:04.775332,16399,225,-1.815000,-9.270000,-0.174000,-0.015507,0.313714,0.362213,-1.799493,-9.583714,-0.536213,-0.711425,-1.816100,-0.023925,16.556252,37.631252,-16.481251,56.888,11.076,-91.075,,walk
2025-10-18T17:50:04.826561,16450,226,-2.274000,-9.595950,-0.538050,-0.260095,0.151496,0.104977,-2.013905,-9.747446,-0.643027,-0.356813,-1.664713,0.104637,15.412500,37.256252,-18.187500,65.109,13.312,-93.209,,walk
2025-10-18T17:50:04.874992,16499,227,-2.274000,-9.864000,-0.115950,-0.249005,0.234344,0.149009,-2.024995,-10.098344,-0.264959,-0.189612,-2.100175,0.513563,14.475000,37.012501,-19.443750,66.720,12.981,-90.673,,walk
2025-10-18T17:50:04.925159,16549,228,-1.968000,-10.170000,0.228000,-0.282937,0.214541,0.167207,-1.685063,-10.384541,0.060793,-0.122100,-2.285525,0.696575,13.987500,36.881252,-20.118752,65.328,10.949,-88.716,,walk
2025-10-18T17:50:04.976518,16600,229,-1.968000,-10.170000,0.228000,-0.282937,0.214541,0.167207,-1.685063,-10.384541,0.060793,-0.122100,-2.285525,0.696575,13.987500,36.881252,-20.118752,65.328,10.949,-88.716,,walk
2025-10-18T17:50:05.547981,17172,230,-1.968000,-10.170000,0.228000,-0.282937,0.214541,0.167207,-1.685063,-10.384541,0.060793,-0.122100,-2.285525,0.696575,13.987500,36.881252,-20.118752,65.328,10.949,-88.716,,walk
2025-10-18T17:50:05.586587,17211,231,-1.948950,-9.576000,-4.081050,-0.212149,-0.157543,-0.442884,-1.736801,-9.418457,-3.638166,-0.897738,1.375962,-0.042900,11.775001,36.225002,-22.275002,78.376,10.605,-113.082,,walk
2025-10-18T17:50:05.636055,17260,232,-2.179050,-12.085951,-2.376000,-0.189547,-0.211824,-0.388600,-1.989503,-11.874127,-1.987400,-1.853775,0.783888,0.476438,12.000000,36.300003,-21.637501,74.965,10.032,-101.122,,walk
2025-10-18T17:50:05.685923,17310,233,-1.432050,-12.889951,-2.415000,-0.165957,-0.283860,-0.368614,-1.266093,-12.606091,-2.046386,-1.941225,0.980237,0.555912,12.168751,36.337502,-21.281250,71.221,6.232,-100.612,,walk
2025-10-18T17:50:05.735929,17360,234,-1.432050,-12.889951,-2.415000,-0.165957,-0.283860,-0.368614,-1.266093,-12.606091,-2.046386,-1.941225,0.980237,0.555912,12.168751,36.337502,-21.281250,71.221,6.232,-100.612,,walk
2025-10-18T17:50:05.785960,17410,235,0.061950,-9.078000,0.649050,-0.165957,-0.283860,-0.368614,0.227907,-8.794140,1.017664,-1.941225,0.980237,0.555912,13.443750,36.618752,-19.068750,50.245,-0.390,-85.910,,walk
2025-10-18T17:50:05.836088,17460,236,0.061950,-9.078000,0.649050,-0.165957,-0.283860,-0.368614,0.227907,-8.794140,1.017664,-1.941225,0.980237,0.555912,13.443750,36.618752,-19.068750,50.245,-0.390,-85.910,,walk
2025-10-18T17:50:05.886111,17510,237,0.061950,-9.078000,0.649050,-0.165957,-0.283860,-0.368614,0.227907,-8.794140,1.017664,-1.941225,0.980237,0.555912,13.443750,36.618752,-19.068750,50.245,-0.390,-85.910,,walk
2025-10-18T17:50:06.818666,18443,238,0.061950,-9.078000,0.649050,-0.165957,-0.283860,-0.368614,0.227907,-8.794140,1.017664,-1.941225,0.980237,0.555912,13.443750,36.618752,-19.068750,50.245,-0.390,-85.910,,walk
2025-10-18T17:50:06.864650,18489,239,0.022950,-10.744950,-3.928050,0.283147,0.042455,0.061455,-0.260197,-10.787405,-3.989505,0.002750,-0.002750,0.004950,17.418751,38.268753,-12.843751,55.275,-0.115,-110.081,,walk
2025-10-18T17:50:06.904999,18529,240,0.022950,-12.391951,-1.762950,0.241068,0.007902,0.060213,-0.218118,-12.399853,-1.823163,0.000825,-0.003162,-0.001375,18.187500,38.700001,-11.362500,42.469,-0.105,-98.097,,walk
2025-10-18T17:50:06.954988,18579,241,0.310950,-11.377050,-0.958950,0.195415,0.021121,0.092091,0.115535,-11.398171,-1.051041,0.003575,0.000137,-0.004537,18.562500,38.887501,-10.668751,35.393,-1.560,-94.818,,walk
2025-10-18T17:50:07.004861,18629,242,0.310950,-11.377050,-0.958950,0.195415,0.021121,0.092091,0.115535,-11.398171,-1.051041,0.003575,0.000137,-0.004537,18.562500,38.887501,-10.668751,35.393,-1.560,-94.818,,walk
2025-10-18T17:50:07.054865,18679,243,0.310950,-11.377050,-0.958950,0.195415,0.021121,0.092091,0.115535,-11.398171,-1.051041,0.003575,0.000137,-0.004537,18.562500,38.887501,-10.668751,35.393,-1.560,-94.818,,walk
2025-10-18T17:50:07.104836,18729,244,0.022950,-8.868000,-1.207950,-0.042245,0.008588,0.001638,0.065195,-8.876588,-1.209588,1.787362,0.730812,0.467638,17.868752,39.168751,-11.568750,43.023,-0.147,-97.757,,walk
2025-10-18T17:50:07.155210,18779,245,0.022950,-8.868000,-1.207950,-0.042245,0.008588,0.001638,0.065195,-8.876588,-1.209588,1.787362,0.730812,0.467638,17.868752,39.168751,-11.568750,43.023,-0.147,-97.757,,walk
2025-10-18T17:50:07.256938,18881,246,0.022950,-8.868000,-1.207950,-0.042245,0.008588,0.001638,0.065195,-8.876588,-1.209588,1.787362,0.730812,0.467638,17.868752,39.168751,-11.568750,43.023,-0.147,-97.757,,walk
2025-10-18T17:50:07.305152,18929,247,-1.527000,-9.213000,-0.958950,-0.156174,0.278756,0.127505,-1.370826,-9.491756,-1.086455,-0.486887,-2.430588,0.019250,15.168751,39.187500,-14.737500,59.066,9.361,-95.942,,walk
2025-10-18T17:50:07.355013,18979,248,-2.064000,-9.634050,-0.538050,-0.208057,0.139326,-0.004676,-1.855943,-9.773376,-0.533374,-0.145475,-2.113650,0.232513,14.587501,39.112503,-15.375001,61.369,12.074,-93.197,,walk
2025-10-18T17:50:07.404967,19029,249,-1.411950,-10.209001,-0.364950,-0.114938,0.066075,-0.006758,-1.297012,-10.275076,-0.358192,-0.058300,-2.178412,0.376337,13.537500,38.775002,-17.043751,61.154,7.869,-92.047,,walk
2025-10-18T17:50:07.458840,19083,250,0.118950,-11.395950,0.285000,-0.078365,-0.033218,-0.000326,0.197315,-11.362732,0.285326,0.182600,-1.295525,0.078650,12.768750,38.437500,-18.525002,53.355,-0.598,-88.567,,walk
2025-10-18T17:50:07.504801,19129,251,-0.358950,-11.683050,0.151050,-0.042564,-0.136598,-0.004102,-0.316386,-11.546452,0.155152,0.359288,-0.370012,-0.331650,11.606251,37.931252,-20.775002,62.013,1.760,-89.259,,walk
2025-10-18T17:50:07.554965,19179,252,-0.838050,-11.548950,0.228000,-0.004424,-0.163919,0.004371,-0.833626,-11.385031,0.223629,0.440825,-0.022825,-0.482900,11.606251,37.931252,-20.775002,64.169,4.150,-88.869,,walk
2025-10-18T17:50:08.052093,19676,253,-0.838050,-11.548950,0.228000,-0.004424,-0.163919,0.004371,-0.833626,-11.385031,0.223629,0.440825,-0.022825,-0.482900,11.606251,37.931252,-20.775002,64.169,4.150,-88.869,,walk
2025-10-18T17:50:08.069650,19694,254,-2.677050,-10.552951,-5.440950,-0.073917,-0.334957,-0.444510,-2.603133,-10.217994,-4.996440,-0.980375,1.961850,-0.124987,10.912500,37.556252,-22.200001,81.508,12.706,-117.275,,walk
2025-10-18T17:50:08.109442,19733,255,-3.079050,-11.050950,-4.062000,-0.128320,-0.312857,-0.465212,-2.950730,-10.738093,-3.596788,-1.538487,1.150187,0.380875,11.418751,37.612503,-21.375000,80.872,14.656,-110.182,,walk
2025-10-18T17:50:08.159025,19783,256,0.616950,-12.373051,-2.319000,-0.040410,-0.379399,-0.332327,0.657360,-11.993652,-1.986673,-1.851300,0.488537,1.071813,12.112500,37.631252,-20.418751,63.609,-2.806,-100.615,,walk
2025-10-18T17:50:08.209035,19833,257,0.616950,-12.373051,-2.319000,-0.040410,-0.379399,-0.332327,0.657360,-11.993652,-1.986673,-1.851300,0.488537,1.071813,12.112500,37.631252,-20.418751,63.609,-2.806,-100.615,,walk
2025-10-18T17:50:08.259047,19883,258,0.616950,-12.373051,-2.319000,-0.040410,-0.379399,-0.332327,0.657360,-11.993652,-1.986673,-1.851300,0.488537,1.071813,12.112500,37.631252,-20.418751,63.609,-2.806,-100.615,,walk
2025-10-18T17:50:08.308849,19933,259,-3.595950,-10.744950,1.261950,-0.006694,0.170824,0.169292,-3.589256,-10.915774,1.092658,2.487513,3.647462,-0.118387,15.225000,38.156250,-16.650002,60.128,18.386,-83.302,,walk
2025-10-18T17:50:08.359324,19983,260,-2.772000,-10.744950,0.132000,-0.107995,0.173939,0.125221,-2.664005,-10.918889,0.006779,2.741888,3.501163,-0.263862,15.600000,38.268753,-16.275002,60.080,14.465,-89.296,,walk
2025-10-18T17:50:08.457646,20082,261,-2.772000,-10.744950,0.132000,-0.107995,0.173939,0.125221,-2.664005,-10.918889,0.006779,2.741888,3.501163,-0.263862,15.600000,38.268753,-16.275002,60.080,14.465,-89.296,,walk
2025-10-18T17:50:08.461373,20085,262,-2.772000,-10.744950,0.132000,-0.107995,0.173939,0.125221,-2.664005,-10.918889,0.006779,2.741888,3.501163,-0.263862,15.600000,38.268753,-16.275002,60.080,14.465,-89.296,,walk
2025-10-18T17:50:08.508935,20133,263,-1.566000,-8.772000,-0.154050,0.189949,0.383942,0.428653,-1.755949,-9.155942,-0.582703,-1.052975,-3.497725,0.418275,17.625000,39.018753,-14.212501,50.110,10.120,-91.006,,walk
2025-10-18T17:50:08.559085,20183,264,-1.872000,-9.442050,-0.691050,-0.038965,0.350028,0.325628,-1.833035,-9.792078,-1.016678,-0.949987,-3.100213,0.223163,17.606251,38.775002,-14.587501,54.847,11.185,-94.186,,walk
2025-10-18T17:50:08.609084,20233,265,-2.158950,-10.342951,-0.556950,-0.337041,0.126276,0.028229,-1.821909,-10.469227,-0.585179,-0.491012,-2.427150,0.258363,17.100000,38.493752,-15.600000,56.909,11.774,-93.082,,walk
2025-10-18T17:50:08.659307,20283,266,-2.217000,-10.801950,0.016950,-0.233381,0.042795,-0.076285,-1.983619,-10.844745,0.093235,-0.223575,-2.629275,0.685850,16.200001,38.231251,-17.156250,58.164,11.598,-89.910,,walk
2025-10-18T17:50:08.709116,20333,267,-1.776000,-11.013000,0.649050,-0.374366,-0.025517,-0.033398,-1.401634,-10.987483,0.682448,-0.103537,-2.527112,0.779212,15.318750,37.950001,-18.675001,56.839,9.145,-86.627,,walk
2025-10-18T17:50:08.759384,20383,268,-1.776000,-11.013000,0.649050,-0.374366,-0.025517,-0.033398,-1.401634,-10.987483,0.682448,-0.103537,-2.527112,0.779212,15.318750,37.950001,-18.675001,56.839,9.145,-86.627,,walk
2025-10-18T17:50:09.266402,20890,269,-1.776000,-11.013000,0.649050,-0.374366,-0.025517,-0.033398,-1.401634,-10.987483,0.682448,-0.103537,-2.527112,0.779212,15.318750,37.950001,-18.675001,56.839,9.145,-86.627,,walk
2025-10-18T17:50:09.294818,20919,270,-0.321000,-9.519000,-4.348950,-0.032542,-0.212854,-0.431217,-0.288458,-9.306146,-3.917733,-1.056000,2.019875,-0.869550,13.331250,37.500000,-21.487501,70.359,1.757,-114.554,,walk
2025-10-18T17:50:09.346044,20970,271,-2.217000,-11.989950,-3.162000,-0.061701,-0.257000,-0.417675,-2.155299,-11.732950,-2.744325,-1.695925,1.549487,-0.204737,13.612500,37.537502,-20.212502,72.453,10.137,-104.774,,walk
2025-10-18T17:50:09.394442,21018,272,0.616950,-12.046950,-2.356950,0.035577,-0.328847,-0.374485,0.581373,-11.718103,-1.982465,-2.058512,1.357125,0.361212,13.762501,37.556252,-19.725000,60.331,-2.877,-101.070,,walk
2025-10-18T17:50:09.444391,21068,273,0.616950,-12.046950,-2.356950,0.035577,-0.328847,-0.374485,0.581373,-11.718103,-1.982465,-2.058512,1.357125,0.361212,13.762501,37.556252,-19.725000,60.331,-2.877,-101.070,,walk
2025-10-18T17:50:09.494506,21118,274,0.616950,-12.046950,-2.356950,0.035577,-0.328847,-0.374485,0.581373,-11.718103,-1.982465,-2.058512,1.357125,0.361212,13.762501,37.556252,-19.725000,60.331,-2.877,-101.070,,walk
2025-10-18T17:50:09.544611,21169,275,-2.868000,-11.013000,1.165950,0.035577,-0.328847,-0.374485,-2.903577,-10.684153,1.540435,-2.058512,1.357125,0.361212,15.281251,37.818752,-16.368752,55.556,14.519,-83.957,,walk
2025-10-18T17:50:09.594859,21219,276,-2.868000,-11.013000,1.165950,0.035577,-0.328847,-0.374485,-2.903577,-10.684153,1.540435,-2.058512,1.357125,0.361212,15.281251,37.818752,-16.368752,55.556,14.519,-83.957,,walk
2025-10-18T17:50:09.684741,21309,277,-2.868000,-11.013000,1.165950,0.035577,-0.328847,-0.374485,-2.903577,-10.684153,1.540435,-2.058512,1.357125,0.361212,15.281251,37.818752,-16.368752,55.556,14.519,-83.957,,walk
2025-10-18T17:50:09.725028,21349,278,-2.868000,-11.013000,1.165950,0.035577,-0.328847,-0.374485,-2.903577,-10.684153,1.540435,-2.058512,1.357125,0.361212,15.281251,37.818752,-16.368752,55.556,14.519,-83.957,,walk
2025-10-18T17:50:09.744252,21368,279,-1.948950,-9.346951,-0.460950,-0.031201,0.275017,0.383953,-1.917749,-9.621968,-0.844903,-0.337975,-2.900837,-0.082363,17.100000,38.700001,-12.881250,51.873,11.764,-92.823,,walk
2025-10-18T17:50:09.794866,21419,280,-2.466000,-9.844951,-1.591050,-0.244449,0.134847,0.129426,-2.221551,-9.979798,-1.720476,-0.461863,-3.584900,0.362038,16.893751,38.606251,-12.881250,59.405,13.889,-99.180,,walk
2025-10-18T17:50:09.844591,21469,281,-2.811000,-10.458000,-1.495050,-0.200271,0.054776,-0.132754,-2.610729,-10.512776,-1.362296,-0.894025,-4.542313,1.302263,15.750001,38.212502,-14.568750,63.834,14.900,-98.136,,walk
2025-10-18T17:50:09.894968,21519,282,-1.930050,-11.377050,-0.307950,-0.213960,0.008901,-0.118370,-1.716090,-11.385951,-0.189580,-1.079925,-4.560875,1.620025,14.756250,37.968750,-16.162500,58.620,9.625,-91.550,,walk
2025-10-18T17:50:09.944528,21568,283,-0.627000,-11.779051,0.381000,-0.284649,-0.170713,-0.105761,-0.342351,-11.608338,0.486761,-0.764225,-2.597238,0.724075,13.368751,37.556252,-18.506250,55.459,3.045,-88.147,,walk
2025-10-18T17:50:09.994658,21619,284,-0.627000,-11.779051,0.381000,-0.284649,-0.170713,-0.105761,-0.342351,-11.608338,0.486761,-0.764225,-2.597238,0.724075,13.368751,37.556252,-18.506250,55.459,3.045,-88.147,,walk
2025-10-18T17:50:10.500236,22124,285,-0.627000,-11.779051,0.381000,-0.284649,-0.170713,-0.105761,-0.342351,-11.608338,0.486761,-0.764225,-2.597238,0.724075,13.368751,37.556252,-18.506250,55.459,3.045,-88.147,,walk
2025-10-18T17:50:10.526038,22150,286,-0.838050,-9.193050,-6.399000,-0.062578,-0.259376,-0.412096,-0.775472,-8.933674,-5.986904,-0.442612,3.348950,-1.338562,11.362500,37.387501,-20.850000,75.970,4.279,-124.841,,walk
2025-10-18T17:50:10.571747,22196,287,-0.991050,-8.944051,-4.464000,-0.128170,-0.113197,-0.565202,-0.862880,-8.830854,-3.898798,-1.476200,2.312750,-0.725450,11.531250,37.406250,-19.893751,74.974,5.662,-116.524,,walk
2025-10-18T17:50:10.619126,22243,288,-2.044050,-11.932051,-4.252950,-0.138402,-0.177064,-0.579489,-1.905648,-11.754987,-3.673461,-2.353587,0.212025,0.361075,11.775001,37.425003,-19.068750,75.008,9.166,-109.618,,walk
2025-10-18T17:50:10.669059,22293,289,-2.044050,-11.932051,-4.252950,-0.138402,-0.177064,-0.579489,-1.905648,-11.754987,-3.673461,-2.353587,0.212025,0.361075,11.775001,37.425003,-19.068750,75.008,9.166,-109.618,,walk
2025-10-18T17:50:10.719125,22343,290,-2.044050,-11.932051,-4.252950,-0.138402,-0.177064,-0.579489,-1.905648,-11.754987,-3.673461,-2.353587,0.212025,0.361075,11.775001,37.425003,-19.068750,75.008,9.166,-109.618,,walk
2025-10-18T17:50:10.769080,22393,291,-0.072000,-9.499950,1.741050,-0.138402,-0.177064,-0.579489,0.066402,-9.322886,2.320539,-2.353587,0.212025,0.361075,13.687501,37.650002,-15.675000,32.757,0.427,-79.615,,walk
2025-10-18T17:50:10.819106,22443,292,-0.072000,-9.499950,1.741050,-0.138402,-0.177064,-0.579489,0.066402,-9.322886,2.320539,-2.353587,0.212025,0.361075,13.687501,37.650002,-15.675000,32.757,0.427,-79.615,,walk
2025-10-18T17:50:10.900272,22524,293,-0.072000,-9.499950,1.741050,-0.138402,-0.177064,-0.579489,0.066402,-9.322886,2.320539,-2.353587,0.212025,0.361075,13.687501,37.650002,-15.675000,32.757,0.427,-79.615,,walk
2025-10-18T17:50:10.930652,22555,294,1.114950,-8.715000,-0.538050,-0.033424,0.177363,0.399244,1.148374,-8.892363,-0.937294,0.517963,-1.397275,0.548350,16.331251,38.531250,-12.450001,35.406,-7.277,-93.533,,walk
2025-10-18T17:50:10.969155,22593,295,0.367950,-9.078000,-0.538050,0.053653,0.095646,0.452156,0.314297,-9.173646,-0.990206,-0.399163,-2.231350,0.189612,16.706251,38.625000,-12.075001,38.477,-2.317,-93.392,,walk
2025-10-18T17:50:11.019287,22643,296,-0.934050,-9.136050,-0.499050,0.092748,0.243656,0.453321,-1.026798,-9.379706,-0.952371,-0.984500,-2.167963,-0.407137,17.006250,38.475002,-12.150001,45.377,5.829,-93.127,,walk
2025-10-18T17:50:11.069526,22693,297,-1.183050,-9.499950,-0.825000,-0.017552,0.292724,0.356035,-1.165498,-9.792674,-1.181035,-0.714863,-1.665537,-0.480013,16.762501,38.212502,-12.918751,50.321,7.072,-94.963,,walk
2025-10-18T17:50:11.119245,22743,298,-2.217000,-9.576000,-0.211950,-0.283484,0.149885,0.055654,-1.933516,-9.725885,-0.267604,-0.199925,-2.258025,0.269913,15.675000,37.800003,-15.187501,58.276,13.032,-91.268,,walk
2025-10-18T17:50:11.169286,22793,299,-2.848950,-10.017000,0.361950,-0.269584,0.177968,0.099954,-2.579366,-10.194968,0.261996,-0.025575,-3.043288,0.992337,15.281251,37.650002,-15.975000,60.380,15.867,-87.931,,walk
2025-10-18T17:50:11.219338,22843,300,-2.848950,-10.017000,0.361950,-0.269584,0.177968,0.099954,-2.579366,-10.194968,0.261996,-0.025575,-3.043288,0.992337,15.281251,37.650002,-15.975000,60.380,15.867,-87.931,,walk
2025-10-18T17:50:11.656269,23280,301,-2.848950,-10.017000,0.361950,-0.269584,0.177968,0.099954,-2.579366,-10.194968,0.261996,-0.025575,-3.043288,0.992337,15.281251,37.650002,-15.975000,60.380,15.867,-87.931,,walk
2025-10-18T17:50:11.675275,23299,302,-0.454950,-6.109950,-1.303950,-0.025407,0.137588,-0.000881,-0.429543,-6.247538,-1.303069,0.600600,2.901387,-0.569800,13.218751,36.562500,-20.306252,67.578,4.165,-102.047,,walk
2025-10-18T17:50:11.718147,23342,303,-0.895050,-7.221000,-3.142950,-0.109050,0.167127,-0.095780,-0.786000,-7.388127,-3.047170,-0.089512,2.911700,-0.681313,13.425000,36.525002,-19.968750,72.023,6.484,-113.521,,walk
2025-10-18T17:50:11.767759,23392,304,-1.776000,-9.538051,-6.514050,-0.170272,0.113084,-0.322824,-1.605728,-9.651135,-6.191226,-1.515800,1.509612,-0.499263,13.556251,36.525002,-19.518751,74.737,8.742,-124.331,,walk
2025-10-18T17:50:11.817680,23442,305,-1.776000,-9.538051,-6.514050,-0.170272,0.113084,-0.322824,-1.605728,-9.651135,-6.191226,-1.515800,1.509612,-0.499263,13.556251,36.525002,-19.518751,74.737,8.742,-124.331,,walk
2025-10-18T17:50:11.877475,23501,306,-1.660950,-7.929000,-4.579050,-0.122366,0.011461,-0.627510,-1.538584,-7.940461,-3.951540,-2.916512,-1.773062,-0.146437,14.531251,36.637501,-16.687500,71.976,10.282,-120.007,,walk
2025-10-18T17:50:11.918021,23542,307,-1.681050,-8.178000,-4.234050,-0.014779,0.253793,-0.758321,-1.666271,-8.431793,-3.475729,-2.332412,-1.490912,-0.136950,14.775001,36.675003,-16.087502,70.709,10.345,-117.372,,walk
2025-10-18T17:50:11.967939,23592,308,-1.681050,-8.178000,-4.234050,-0.014779,0.253793,-0.758321,-1.666271,-8.431793,-3.475729,-2.332412,-1.490912,-0.136950,14.775001,36.675003,-16.087502,70.709,10.345,-117.372,,walk
2025-10-18T17:50:12.484403,24108,309,-1.681050,-8.178000,-4.234050,-0.014779,0.253793,-0.758321,-1.666271,-8.431793,-3.475729,-2.332412,-1.490912,-0.136950,14.775001,36.675003,-16.087502,70.709,10.345,-117.372,,walk
2025-10-18T17:50:12.505747,24130,310,-1.795050,-10.726050,-0.556950,0.028371,-0.091856,0.524015,-1.823421,-10.634194,-1.080965,1.749138,-0.094187,-0.268400,16.687500,36.750000,-12.281251,49.246,9.488,-92.972,,walk
2025-10-18T17:50:12.556880,24181,311,-1.566000,-11.185051,0.228000,0.029762,-0.152153,0.632121,-1.595762,-11.032898,-0.404121,1.567363,-1.836725,-0.177375,16.500000,36.675003,-12.375001,43.321,7.968,-88.832,,walk
2025-10-18T17:50:12.605690,24230,312,-1.336050,-11.262000,0.228000,0.032477,-0.210602,0.633883,-1.368527,-11.051398,-0.405883,1.691113,-2.463175,-0.027638,16.387501,36.637501,-12.412500,42.373,6.764,-88.840,,walk
2025-10-18T17:50:12.655585,24280,313,-1.336050,-11.262000,0.228000,0.032477,-0.210602,0.633883,-1.368527,-11.051398,-0.405883,1.691113,-2.463175,-0.027638,16.387501,36.637501,-12.412500,42.373,6.764,-88.840,,walk
2025-10-18T17:50:12.705579,24330,314,-1.336050,-11.262000,0.228000,0.032477,-0.210602,0.633883,-1.368527,-11.051398,-0.405883,1.691113,-2.463175,-0.027638,16.387501,36.637501,-12.412500,42.373,6.764,-88.840,,walk
2025-10-18T17:50:12.755581,24380,315,2.302950,-12.067051,0.400050,0.289500,-0.240036,0.506451,2.013450,-11.827015,-0.106401,0.264275,-0.008388,-1.385175,12.487500,35.887501,-17.362501,41.057,-10.799,-88.101,,walk
2025-10-18T17:50:12.805811,24430,316,1.804950,-12.373051,0.418950,0.346000,-0.212453,0.533854,1.458950,-12.160598,-0.114904,0.251900,0.553850,-1.518137,12.093751,35.906250,-17.812500,45.236,-8.295,-88.061,,walk
2025-10-18T17:50:13.036763,24661,317,1.804950,-12.373051,0.418950,0.346000,-0.212453,0.533854,1.458950,-12.160598,-0.114904,0.251900,0.553850,-1.518137,12.093751,35.906250,-17.812500,45.236,-8.295,-88.061,,walk
2025-10-18T17:50:13.056005,24680,318,-0.570000,-8.580001,-4.693950,0.060441,0.418366,-0.243123,-0.630441,-8.998367,-4.450827,-1.121450,0.006875,0.937887,9.506250,36.693752,-20.512501,77.043,3.336,-118.682,,walk
2025-10-18T17:50:13.105747,24730,319,-2.332050,-10.458000,-7.012050,-0.130645,0.338132,-0.488686,-2.201405,-10.796132,-6.523364,-1.971337,-0.984913,0.900900,9.975000,37.162502,-19.368752,80.620,10.493,-123.842,,walk
2025-10-18T17:50:13.155623,24780,320,-3.213000,-9.481050,-6.838950,-0.253991,0.267718,-0.744403,-2.959009,-9.748768,-6.094547,-3.078625,-1.464650,0.633462,10.743751,37.593750,-17.887501,81.651,15.368,-125.804,,walk
2025-10-18T17:50:13.205818,24830,321,-3.499950,-7.795050,-4.579050,-0.322197,0.333665,-0.737885,-3.177753,-8.128715,-3.841165,-3.032975,-1.572450,0.429000,12.093751,38.231251,-15.600000,81.006,21.163,-120.431,,walk
2025-10-18T17:50:13.255760,24880,322,-2.313000,-10.477051,-3.870000,-0.451824,0.319372,-0.666300,-1.861176,-10.796423,-3.203700,-1.653575,-1.108525,0.411125,13.068750,38.662502,-14.043751,70.931,11.700,-110.273,,walk
2025-10-18T17:50:13.307581,24932,323,-0.627000,-12.985950,-3.601950,-0.467397,0.170908,-0.633653,-0.159603,-13.156858,-2.968297,-0.262762,-0.563062,0.367675,14.625001,39.168751,-11.831250,58.015,2.664,-105.503,,walk
2025-10-18T17:50:13.356045,24980,324,3.757950,-9.940050,-0.633000,-0.083188,0.161314,-0.450775,3.841138,-10.101364,-0.182225,1.648762,2.048475,0.075213,15.600000,39.318752,-10.706250,20.854,-20.671,-93.644,,walk
2025-10-18T17:50:13.406878,25031,325,-0.723000,-10.936050,2.296050,0.078610,0.046485,-0.066873,-0.801610,-10.982535,2.362923,2.879937,4.342800,-0.389125,16.631250,39.468750,-9.712501,8.640,3.702,-78.143,,walk
2025-10-18T17:50:13.458490,25082,326,-3.366000,-11.262000,1.741050,-0.085406,-0.014687,0.054315,-3.280594,-11.247313,1.686735,3.051125,4.666337,-0.331787,17.137501,39.450001,-9.412500,29.187,16.456,-81.212,,walk
2025-10-18T17:50:13.505661,25130,327,0.406050,-7.909950,-1.456950,-0.070371,0.107542,0.014603,0.476421,-8.017492,-1.471553,2.406938,2.667500,-0.009075,17.568750,39.225002,-9.768750,41.267,-2.890,-100.436,,walk
2025-10-18T17:50:13.556264,25180,328,1.038000,-6.952050,-1.974000,0.074028,0.125548,-0.066334,0.963972,-7.077598,-1.907666,1.517175,0.146850,0.605275,17.568750,39.056252,-10.387501,43.900,-8.174,-105.852,,walk
2025-10-18T17:50:13.605658,25230,329,0.022950,-6.568950,-1.917000,0.066849,0.061638,-0.094960,-0.043899,-6.630588,-1.822040,0.899800,-1.229113,0.861575,17.475000,39.000000,-10.818750,50.516,-0.192,-106.269,,walk
2025-10-18T17:50:13.655509,25279,330,0.022950,-6.568950,-1.917000,0.066849,0.061638,-0.094960,-0.043899,-6.630588,-1.822040,0.899800,-1.229113,0.861575,17.475000,39.000000,-10.818750,50.516,-0.192,-106.269,,walk
2025-10-18T17:50:13.706424,25330,331,0.022950,-6.568950,-1.917000,0.066849,0.061638,-0.094960,-0.043899,-6.630588,-1.822040,0.899800,-1.229113,0.861575,17.475000,39.000000,-10.818750,50.516,-0.192,-106.269,,walk
2025-10-18T17:50:13.755634,25380,332,-0.474000,-7.470000,-2.932050,0.051408,0.700539,0.298457,-0.525408,-8.170539,-3.230507,-2.534675,-2.873612,0.835037,17.625000,38.400002,-13.575001,58.692,3.380,-111.431,,walk
2025-10-18T17:50:13.805942,25430,333,-0.474000,-7.470000,-2.932050,0.051408,0.700539,0.298457,-0.525408,-8.170539,-3.230507,-2.534675,-2.873612,0.835037,17.625000,38.400002,-13.575001,58.692,3.380,-111.431,,walk
2025-10-18T17:50:14.244898,25869,334,-0.474000,-7.470000,-2.932050,0.051408,0.700539,0.298457,-0.525408,-8.170539,-3.230507,-2.534675,-2.873612,0.835037,17.625000,38.400002,-13.575001,58.692,3.380,-111.431,,walk
2025-10-18T17:50:14.266319,25890,335,0.157050,0.766050,-0.327000,0.103595,-0.305373,0.086439,0.053455,1.071423,-0.413439,0.003850,-0.000275,-0.003025,14.325001,38.062500,-18.543751,2.043,-10.678,113.116,,walk
2025-10-18T17:50:14.311572,25936,336,-3.462000,-2.470050,-3.526050,0.055727,0.019464,0.025816,-3.517727,-2.489514,-3.551866,0.415112,-1.093950,-0.312813,13.275001,37.987503,-19.350000,92.290,38.805,-144.988,,walk
2025-10-18T17:50:14.361252,25985,337,-2.599950,-8.944051,-2.491050,-0.041448,-0.092236,-0.061824,-2.558502,-8.851815,-2.429226,-0.796400,-2.554338,0.220412,12.337501,37.912502,-20.100000,78.594,15.644,-105.563,,walk
2025-10-18T17:50:14.411421,26035,338,-2.599950,-8.944051,-2.491050,-0.041448,-0.092236,-0.061824,-2.558502,-8.851815,-2.429226,-0.796400,-2.554338,0.220412,12.337501,37.912502,-20.100000,78.594,15.644,-105.563,,walk
2025-10-18T17:50:14.461490,26085,339,-2.599950,-8.944051,-2.491050,-0.041448,-0.092236,-0.061824,-2.558502,-8.851815,-2.429226,-0.796400,-2.554338,0.220412,12.337501,37.912502,-20.100000,78.594,15.644,-105.563,,walk
2025-10-18T17:50:14.511408,26135,340,2.973000,-27.256052,-5.095950,-0.005846,-1.069639,-0.316773,2.978846,-26.186413,-4.779177,0.156337,0.355850,-0.321750,9.881250,38.418751,-20.512501,65.265,-6.120,-100.590,,walk
2025-10-18T17:50:14.561403,26185,341,4.255950,-24.439951,-5.115000,0.123482,-1.195365,-0.335125,4.132468,-23.244586,-4.779875,0.784025,1.372937,-0.777150,9.731251,38.587502,-20.193750,63.272,-9.673,-101.821,,walk
2025-10-18T17:50:14.635121,26259,342,4.255950,-24.439951,-5.115000,0.123482,-1.195365,-0.335125,4.132468,-23.244586,-4.779875,0.784025,1.372937,-0.777150,9.731251,38.587502,-20.193750,63.272,-9.673,-101.821,,walk
2025-10-18T17:50:14.661672,26286,343,3.375000,-2.700000,0.802050,0.042006,-0.616176,-0.129482,3.332994,-2.083824,0.931532,0.162800,4.306637,-0.374825,9.093750,39.543751,-17.100000,-21.457,-50.153,-73.456,,walk
2025-10-18T17:50:14.711696,26336,344,3.165000,1.111050,1.932000,0.329449,-0.290283,0.121110,2.835551,1.401333,1.810890,0.170638,4.688475,-0.113300,9.112500,39.731251,-15.787500,-62.756,-54.848,29.902,,walk
2025-10-18T17:50:14.761721,26386,345,0.234000,0.115050,2.161950,0.427221,0.512674,0.383815,-0.193221,-0.397624,1.778135,1.372525,7.771225,-0.521400,9.412500,40.031250,-13.556251,-75.097,-6.169,3.046,,walk
2025-10-18T17:50:14.811973,26436,346,0.463950,-2.182950,-0.844050,0.633869,1.116237,0.374852,-0.169919,-3.299187,-1.218902,3.221625,8.125975,-4.053362,10.143750,40.275002,-12.168751,62.657,-11.212,-111.139,,walk
2025-10-18T17:50:14.861347,26485,347,-0.531000,-12.105000,-9.463051,0.492129,1.731794,-0.129393,-1.023129,-13.836794,-9.333658,1.167788,-0.377162,-2.303537,11.400001,40.668751,-10.050000,71.633,1.979,-128.016,,walk
2025-10-18T17:50:14.911478,26535,348,-0.570000,-13.024051,-10.420951,0.362556,1.776182,-0.242954,-0.932556,-14.800233,-10.177997,0.559900,-2.979075,-1.954975,11.400001,40.668751,-10.050000,71.772,1.957,-128.664,,walk
2025-10-18T17:50:15.235519,26859,349,-0.570000,-13.024051,-10.420951,0.362556,1.776182,-0.242954,-0.932556,-14.800233,-10.177997,0.559900,-2.979075,-1.954975,11.400001,40.668751,-10.050000,71.772,1.957,-128.664,,walk
2025-10-18T17:50:15.262989,26887,350,-0.531000,-10.054951,-1.783050,-0.116995,1.233029,0.060254,-0.414005,-11.287980,-1.843304,0.744700,-1.450350,0.149737,17.025002,40.875000,-4.800000,37.225,2.977,-100.056,,walk
2025-10-18T17:50:15.312957,26937,351,3.508950,-8.121000,-1.015950,0.201414,0.672059,-0.001574,3.307536,-8.793059,-1.014376,2.330900,0.383763,-0.006875,17.456251,40.556252,-5.418750,9.833,-23.207,-97.131,,walk
2025-10-18T17:50:15.362406,26986,352,0.330000,-9.058950,0.094050,0.016041,0.074635,-0.065028,0.313959,-9.133585,0.159078,3.309900,1.220175,-0.184250,17.493752,40.237503,-6.468750,16.979,-2.086,-89.405,,walk
2025-10-18T17:50:15.412390,27036,353,0.330000,-9.058950,0.094050,0.016041,0.074635,-0.065028,0.313959,-9.133585,0.159078,3.309900,1.220175,-0.184250,17.493752,40.237503,-6.468750,16.979,-2.086,-89.405,,walk
2025-10-18T17:50:15.462419,27086,354,0.330000,-9.058950,0.094050,0.016041,0.074635,-0.065028,0.313959,-9.133585,0.159078,3.309900,1.220175,-0.184250,17.493752,40.237503,-6.468750,16.979,-2.086,-89.405,,walk
2025-10-18T17:50:15.512657,27137,355,-3.001950,-11.013000,-0.652050,-0.213220,-0.062896,0.884005,-2.788730,-10.950104,-1.536055,0.493488,-2.973850,0.750337,14.962501,39.000000,-13.687501,60.810,15.222,-93.388,,walk
2025-10-18T17:50:15.613677,27238,356,-3.001950,-11.013000,-0.652050,-0.213220,-0.062896,0.884005,-2.788730,-10.950104,-1.536055,0.493488,-2.973850,0.750337,14.962501,39.000000,-13.687501,60.810,15.222,-93.388,,walk
2025-10-18T17:50:15.663035,27287,357,2.532000,-13.656001,0.055050,0.220757,-0.280512,0.417375,2.311243,-13.375489,-0.362325,-0.111925,-0.791175,-0.249838,12.225000,37.593750,-21.056252,49.123,-10.504,-89.769,,walk
2025-10-18T17:50:15.712992,27337,358,2.839050,-13.446001,-0.078000,0.140964,-0.438221,0.342390,2.698086,-13.007780,-0.420390,0.237600,1.106600,-1.336775,11.587501,37.556252,-22.537500,51.176,-11.922,-90.332,,walk
2025-10-18T17:50:15.763166,27387,359,0.310950,-12.009001,0.285000,0.028198,-0.484790,0.210925,0.282752,-11.524211,0.074075,0.315150,2.639587,-2.016988,10.800000,37.612503,-24.187502,63.591,-1.483,-88.641,,walk
2025-10-18T17:50:15.813907,27438,360,-0.570000,-9.826051,-0.384000,0.073823,-0.361343,0.098778,-0.643823,-9.464708,-0.482778,0.103262,2.845700,-1.766325,10.556251,37.762501,-24.037500,70.661,3.317,-92.238,,walk
2025-10-18T17:50:15.862372,27486,361,0.271950,-6.129000,1.051050,0.204933,-0.034352,0.117179,0.067017,-6.094648,0.933871,-0.085112,2.661450,-0.733012,10.425000,38.100002,-22.931252,53.960,-2.504,-80.269,,walk
2025-10-18T17:50:15.912570,27537,362,0.271950,-6.129000,1.051050,0.204933,-0.034352,0.117179,0.067017,-6.094648,0.933871,-0.085112,2.661450,-0.733012,10.425000,38.100002,-22.931252,53.960,-2.504,-80.269,,walk
2025-10-18T17:50:16.407875,28032,363,0.271950,-6.129000,1.051050,0.204933,-0.034352,0.117179,0.067017,-6.094648,0.933871,-0.085112,2.661450,-0.733012,10.425000,38.100002,-22.931252,53.960,-2.504,-80.269,,walk
2025-10-18T17:50:16.441691,28066,364,-0.340050,-8.140050,-0.652050,0.281555,0.532823,-0.053248,-0.621605,-8.672873,-0.598802,-0.732325,-0.364650,0.305525,12.412500,39.206253,-18.450001,62.151,2.385,-94.580,,walk
2025-10-18T17:50:16.492132,28116,365,-0.187050,-9.595950,-1.111950,0.130659,0.518660,-0.073305,-0.317709,-10.114610,-1.038645,-1.048850,-2.233825,0.495825,12.787500,39.337502,-18.037500,61.272,1.109,-96.610,,walk
2025-10-18T17:50:16.541776,28166,366,-0.856950,-10.113001,-1.264950,0.014154,0.509408,-0.093844,-0.871104,-10.622409,-1.171106,-1.042938,-3.049200,0.675400,12.937501,39.393753,-17.868752,64.259,4.806,-97.130,,walk
2025-10-18T17:50:16.591787,28216,367,-0.856950,-10.113001,-1.264950,0.014154,0.509408,-0.093844,-0.871104,-10.622409,-1.171106,-1.042938,-3.049200,0.675400,12.937501,39.393753,-17.868752,64.259,4.806,-97.130,,walk
2025-10-18T17:50:16.641803,28266,368,-0.856950,-10.113001,-1.264950,0.014154,0.509408,-0.093844,-0.871104,-10.622409,-1.171106,-1.042938,-3.049200,0.675400,12.937501,39.393753,-17.868752,64.259,4.806,-97.130,,walk
2025-10-18T17:50:16.691795,28316,369,-1.909950,-10.515000,-1.552950,-0.374962,-0.576033,-0.230022,-1.534988,-9.938967,-1.322928,-0.851675,-2.307525,0.309375,13.106251,38.681252,-18.318750,69.460,10.187,-98.401,,walk
2025-10-18T17:50:16.741851,28366,370,-1.795050,-10.801950,-1.668000,-0.364290,-0.613546,-0.260098,-1.430760,-10.188404,-1.407902,-0.842600,-2.039125,0.300575,13.012501,38.531250,-18.618752,69.391,9.327,-98.778,,walk
2025-10-18T17:50:16.861940,28486,371,-1.795050,-10.801950,-1.668000,-0.364290,-0.613546,-0.260098,-1.430760,-10.188404,-1.407902,-0.842600,-2.039125,0.300575,13.012501,38.531250,-18.618752,69.391,9.327,-98.778,,walk
2025-10-18T17:50:16.892050,28516,372,-2.562000,-11.109000,-1.534050,0.069095,-0.437454,0.046502,-2.631095,-10.671546,-1.580552,0.805475,2.629550,-1.113613,11.325001,38.343750,-20.812500,77.044,12.869,-97.862,,walk
2025-10-18T17:50:16.941906,28566,373,-2.503950,-8.178000,-0.940050,0.040546,-0.246984,0.050284,-2.544496,-7.931016,-0.990334,0.540925,2.409550,-0.545050,10.931251,38.418751,-20.550001,80.611,16.919,-96.557,,walk
2025-10-18T17:50:16.992243,28616,374,-0.052050,-4.788000,-0.019950,0.139138,0.154357,0.140476,-0.191188,-4.942357,-0.160426,0.072875,1.220175,0.650238,10.987500,38.587502,-19.481251,61.397,0.623,-90.239,,walk
2025-10-18T17:50:17.041983,28666,375,0.904050,-4.596000,0.247050,0.184525,0.333561,0.198240,0.719525,-4.929561,0.048810,-0.062700,0.402325,1.068650,11.250000,38.962502,-17.737501,42.230,-11.113,-86.923,,walk
2025-10-18T17:50:17.091714,28716,376,-0.033000,-6.991050,-3.256950,0.291003,0.399558,0.095545,-0.324003,-7.390608,-3.352495,-0.285450,0.952462,0.608712,11.587501,39.281250,-16.650002,70.050,0.245,-114.980,,walk
2025-10-18T17:50:17.142303,28766,377,-0.033000,-6.991050,-3.256950,0.291003,0.399558,0.095545,-0.324003,-7.390608,-3.352495,-0.285450,0.952462,0.608712,11.587501,39.281250,-16.650002,70.050,0.245,-114.980,,walk
2025-10-18T17:50:17.678460,29302,378,-0.033000,-6.991050,-3.256950,0.291003,0.399558,0.095545,-0.324003,-7.390608,-3.352495,-0.285450,0.952462,0.608712,11.587501,39.281250,-16.650002,70.050,0.245,-114.980,,walk
2025-10-18T17:50:17.699364,29323,379,-1.603950,-9.519000,-0.613950,-0.344704,0.376153,-0.298073,-1.259246,-9.895153,-0.315877,-0.424462,-1.939575,-0.186175,13.256250,40.556252,-13.031251,58.242,9.545,-93.690,,walk
2025-10-18T17:50:17.743799,29368,380,-1.470000,-10.113001,-1.189050,-0.165834,0.319328,-0.151494,-1.304166,-10.432329,-1.037556,1.078550,-1.255512,-0.267850,12.637501,40.631252,-12.993751,61.120,8.215,-96.706,,walk
2025-10-18T17:50:17.793479,29417,381,-2.179050,-10.630051,-1.015950,-0.043209,0.010107,-0.089026,-2.135841,-10.640158,-0.926924,2.378200,-1.121588,-0.373725,12.206250,40.350002,-13.537500,64.583,11.533,-95.459,,walk
2025-10-18T17:50:17.843544,29467,382,-2.179050,-10.630051,-1.015950,-0.043209,0.010107,-0.089026,-2.135841,-10.640158,-0.926924,2.378200,-1.121588,-0.373725,12.206250,40.350002,-13.537500,64.583,11.533,-95.459,,walk
2025-10-18T17:50:17.893564,29517,383,-2.179050,-10.630051,-1.015950,-0.043209,0.010107,-0.089026,-2.135841,-10.640158,-0.926924,2.378200,-1.121588,-0.373725,12.206250,40.350002,-13.537500,64.583,11.533,-95.459,,walk
2025-10-18T17:50:17.943549,29567,384,-1.144050,-11.128051,0.304050,-0.019779,-0.226809,0.736986,-1.124271,-10.901242,-0.432936,0.487987,-0.852637,0.241313,9.900001,38.906250,-18.450001,66.482,5.868,-88.435,,walk
2025-10-18T17:50:17.993658,29618,385,-0.723000,-11.224051,0.151050,-0.027583,-0.236113,0.596709,-0.695417,-10.987938,-0.445659,0.226875,-0.744287,0.187963,9.900001,38.906250,-18.450001,64.857,3.685,-89.229,,walk
2025-10-18T17:50:18.099737,29724,386,-0.723000,-11.224051,0.151050,-0.027583,-0.236113,0.596709,-0.695417,-10.987938,-0.445659,0.226875,-0.744287,0.187963,9.900001,38.906250,-18.450001,64.857,3.685,-89.229,,walk
2025-10-18T17:50:18.146280,29770,387,-0.397050,-11.242950,-0.538050,0.277352,-0.288176,0.266450,-0.674402,-10.954774,-0.804500,0.346775,3.109425,-1.496825,8.006250,39.243752,-22.743752,73.850,2.020,-92.740,,walk
2025-10-18T17:50:18.195,29819,388,0.138000,-8.082001,0.036000,0.285789,-0.048991,0.189796,-0.147789,-8.033010,-0.153796,-0.247500,3.156588,-0.816750,8.193750,39.393753,-22.893751,69.182,-0.978,-89.745,,walk
2025-10-18T17:50:18.244312,29868,389,0.387000,-5.476950,-0.078000,0.337125,0.294689,0.088500,0.049875,-5.771639,-0.166500,-0.498437,2.845562,0.038087,9.525001,39.712502,-21.881250,63.048,-4.041,-90.816,,walk
2025-10-18T17:50:18.296809,29921,390,0.579000,-5.017950,-0.403050,0.323397,0.484542,0.042885,0.255603,-5.502492,-0.445935,-0.508475,2.750550,0.234437,10.856251,39.975002,-20.756250,59.703,-6.561,-94.592,,walk
2025-10-18T17:50:18.343502,29967,391,0.349050,-5.860950,-1.936050,0.371427,0.600230,-0.055288,-0.022377,-6.461180,-1.880762,-0.644325,2.406250,0.022138,12.956250,40.406250,-19.087502,65.017,-3.237,-108.280,,walk
2025-10-18T17:50:18.393632,30018,392,0.349050,-5.860950,-1.936050,0.371427,0.600230,-0.055288,-0.022377,-6.461180,-1.880762,-0.644325,2.406250,0.022138,12.956250,40.406250,-19.087502,65.017,-3.237,-108.280,,walk
2025-10-18T17:50:18.797691,30422,393,-0.052050,-9.556951,0.247050,0.371427,0.600230,-0.055288,-0.423477,-10.157181,0.302338,-0.644325,2.406250,0.022138,18.918751,41.343750,-14.868751,36.420,0.312,-88.519,,walk
2025-10-18T17:50:18.829713,30454,394,1.000050,-9.327001,-0.211950,-0.271942,0.281950,-0.357140,1.271992,-9.608951,0.145190,-0.359975,-1.470562,0.218488,19.818750,41.287502,-14.306251,31.573,-6.118,-91.302,,walk
2025-10-18T17:50:18.879223,30503,395,0.406050,-9.499950,-0.709950,-0.135478,0.278831,-0.235183,0.541528,-9.778781,-0.474767,1.164212,0.033687,-0.259050,20.531250,41.100002,-14.006250,37.411,-2.441,-94.274,,walk
2025-10-18T17:50:18.929266,30553,396,-0.340050,-9.595950,-1.015950,-0.107875,0.246557,-0.204999,-0.232175,-9.842507,-0.810951,1.871238,0.712388,-0.480013,20.812500,40.968750,-13.950001,42.952,2.018,-96.044,,walk
2025-10-18T17:50:18.979250,30603,397,-0.340050,-9.595950,-1.015950,-0.107875,0.246557,-0.204999,-0.232175,-9.842507,-0.810951,1.871238,0.712388,-0.480013,20.812500,40.968750,-13.950001,42.952,2.018,-96.044,,walk
2025-10-18T17:50:19.039298,30663,398,-1.909950,-9.078000,-1.074000,-0.244420,-0.268664,-0.132601,-1.665530,-8.809336,-0.941399,0.000000,0.000000,0.000000,20.550001,39.300003,-15.431251,54.517,11.801,-96.747,,walk
2025-10-18T17:50:19.079388,30703,399,-1.987050,-9.213000,-0.787050,0.051084,0.079198,0.520984,-2.038134,-9.292198,-1.308034,0.241175,-1.733462,0.224950,19.800001,38.793751,-16.425001,55.846,12.128,-94.883,,walk
2025-10-18T17:50:19.129263,30753,400,-1.987050,-9.213000,-0.787050,0.051084,0.079198,0.520984,-2.038134,-9.292198,-1.308034,0.241175,-1.733462,0.224950,19.800001,38.793751,-16.425001,55.846,12.128,-94.883,,walk
2025-10-18T17:50:19.220125,30844,401,-1.987050,-9.213000,-0.787050,0.051084,0.079198,0.520984,-2.038134,-9.292198,-1.308034,0.241175,-1.733462,0.224950,19.800001,38.793751,-16.425001,55.846,12.128,-94.883,,walk
2025-10-18T17:50:19.229191,30853,402,-0.511950,-12.718051,-0.613950,-0.071192,-0.236482,0.173323,-0.440758,-12.481569,-0.787273,0.483175,-0.084837,-0.398475,16.068750,37.050003,-20.962502,56.917,2.302,-92.764,,walk
2025-10-18T17:50:19.280083,30904,403,1.153050,-11.454000,-1.093050,0.022745,-0.260048,0.110622,1.130305,-11.193952,-1.203672,0.395312,0.701388,-0.778800,15.243751,36.787502,-21.656250,53.519,-5.723,-95.451,,walk
2025-10-18T17:50:19.330034,30954,404,2.935050,-10.515000,-0.613950,0.298983,-0.238765,0.077013,2.636067,-10.276235,-0.690963,0.065450,1.553337,-1.246025,13.762501,36.693752,-22.387501,46.041,-15.571,-93.342,,walk
2025-10-18T17:50:19.380865,31005,405,0.271950,-11.071051,0.016950,0.349186,-0.249826,0.097439,-0.077236,-10.821225,-0.080489,-0.189475,1.875775,-1.310787,13.050000,36.843750,-22.312500,58.205,-1.407,-89.912,,walk
2025-10-18T17:50:19.429130,31053,406,-1.201950,-10.303950,-0.709950,0.236033,-0.223108,0.081267,-1.437983,-10.080842,-0.791217,-0.235950,1.720950,-0.986013,12.693750,37.050003,-21.843750,68.544,6.638,-93.941,,walk
2025-10-18T17:50:19.479263,31103,407,-1.201950,-10.303950,-0.709950,0.236033,-0.223108,0.081267,-1.437983,-10.080842,-0.791217,-0.235950,1.720950,-0.986013,12.693750,37.050003,-21.843750,68.544,6.638,-93.941,,walk
2025-10-18T17:50:19.529469,31153,408,-1.201950,-10.303950,-0.709950,0.236033,-0.223108,0.081267,-1.437983,-10.080842,-0.791217,-0.235950,1.720950,-0.986013,12.693750,37.050003,-21.843750,68.544,6.638,-93.941,,walk
2025-10-18T17:50:20.044314,31668,409,-1.201950,-10.303950,-0.709950,0.236033,-0.223108,0.081267,-1.437983,-10.080842,-0.791217,-0.235950,1.720950,-0.986013,12.693750,37.050003,-21.843750,68.544,6.638,-93.941,,walk
2025-10-18T17:50:20.082125,31706,410,1.498050,-8.580001,-1.111950,0.131846,0.293337,-0.130181,1.366204,-8.873338,-0.981769,-0.492388,-0.623975,0.689700,13.143750,38.325001,-17.850000,51.547,-9.823,-97.384,,walk
2025-10-18T17:50:20.115202,31739,411,1.479000,-8.293051,-0.766950,0.205795,0.384195,-0.116905,1.273205,-8.677246,-0.650045,-0.324500,0.546425,-0.170775,13.181251,38.400002,-17.662500,49.115,-10.070,-95.284,,walk
2025-10-18T17:50:20.163115,31787,412,-0.225000,-8.809951,-0.250050,0.138861,0.444096,-0.028946,-0.363861,-9.254047,-0.221104,0.352825,1.632813,-0.851263,13.068750,38.681252,-17.175001,55.821,1.462,-91.626,,walk
2025-10-18T17:50:20.213191,31837,413,-0.225000,-8.809951,-0.250050,0.138861,0.444096,-0.028946,-0.363861,-9.254047,-0.221104,0.352825,1.632813,-0.851263,13.068750,38.681252,-17.175001,55.821,1.462,-91.626,,walk
2025-10-18T17:50:20.263134,31887,414,-0.225000,-8.809951,-0.250050,0.138861,0.444096,-0.028946,-0.363861,-9.254047,-0.221104,0.352825,1.632813,-0.851263,13.068750,38.681252,-17.175001,55.821,1.462,-91.626,,walk
2025-10-18T17:50:20.313156,31937,415,-1.278000,-10.209001,-0.556950,-0.073485,-0.112436,-0.009295,-1.204515,-10.096565,-0.547655,0.230587,-2.216637,0.337287,12.037500,38.662502,-17.550001,65.040,7.125,-93.123,,walk
2025-10-18T17:50:20.363126,31987,416,-1.105950,-10.515000,-0.576000,-0.051916,-0.309570,0.038392,-1.054034,-10.205430,-0.614392,-0.079338,-2.715487,0.611050,11.643750,38.362503,-18.168751,65.610,5.995,-93.135,,walk
2025-10-18T17:50:20.462707,32087,417,-1.105950,-10.515000,-0.576000,-0.051916,-0.309570,0.038392,-1.054034,-10.205430,-0.614392,-0.079338,-2.715487,0.611050,11.643750,38.362503,-18.168751,65.610,5.995,-93.135,,walk
2025-10-18T17:50:20.466294,32090,418,-1.258950,-11.185051,-0.231000,-0.051099,-0.396776,0.111259,-1.207851,-10.788275,-0.342259,0.105325,-1.319450,0.207762,10.237500,37.068752,-21.431252,71.470,6.421,-91.183,,walk
2025-10-18T17:50:20.513783,32138,419,-0.072000,-11.473050,-0.423000,-0.173571,-0.395017,0.089186,0.101571,-11.078033,-0.512186,0.250800,-0.425012,-0.082500,9.675000,36.731251,-22.668751,68.392,0.359,-92.111,,walk
2025-10-18T17:50:20.564548,32188,420,0.828000,-11.856001,0.477000,-0.094936,-0.403904,0.082988,0.922936,-11.452097,0.394012,0.295213,0.190850,-0.345400,8.962501,36.468750,-24.037500,64.112,-3.992,-87.696,,walk
2025-10-18T17:50:20.613650,32238,421,0.769950,-12.391951,0.820950,0.043406,-0.422525,0.119096,0.726544,-11.969426,0.701854,0.283937,1.111275,-0.690938,8.606251,36.450001,-24.468752,64.755,-3.548,-86.210,,walk
2025-10-18T17:50:20.663245,32287,422,-0.627000,-11.320050,-0.307950,0.066916,-0.375557,0.106328,-0.693916,-10.944493,-0.414278,0.255750,1.536150,-0.765463,8.381250,36.618752,-24.393751,74.783,3.169,-91.558,,walk
2025-10-18T17:50:20.713326,32337,423,-0.838050,-9.787050,-0.289050,0.058650,-0.250790,0.107655,-0.896700,-9.536260,-0.396705,0.197588,1.854187,-0.631125,8.437500,36.693752,-24.150002,76.206,4.892,-91.692,,walk
2025-10-18T17:50:20.763430,32387,424,-0.838050,-9.787050,-0.289050,0.058650,-0.250790,0.107655,-0.896700,-9.536260,-0.396705,0.197588,1.854187,-0.631125,8.437500,36.693752,-24.150002,76.206,4.892,-91.692,,walk
2025-10-18T17:50:21.063168,32687,425,-0.838050,-9.787050,-0.289050,0.058650,-0.250790,0.107655,-0.896700,-9.536260,-0.396705,0.197588,1.854187,-0.631125,8.437500,36.693752,-24.150002,76.206,4.892,-91.692,,walk
2025-10-18T17:50:21.069076,32693,426,-1.987050,-10.170000,-3.679050,0.058650,-0.250790,0.107655,-2.045700,-9.919210,-3.786705,0.197588,1.854187,-0.631125,12.131250,37.781250,-18.937500,75.297,10.411,-109.888,,walk
2025-10-18T17:50:21.115347,32739,427,-0.895050,-12.948001,-2.758950,-0.028033,0.132478,-0.345520,-0.867017,-13.080479,-2.413430,-1.285763,0.633875,0.525113,13.181251,38.081253,-17.531250,65.209,3.868,-102.029,,walk
2025-10-18T17:50:21.164750,32789,428,3.471000,-9.040051,0.169950,0.162489,0.140638,-0.231186,3.308511,-9.180689,0.401136,-1.052700,1.226225,0.073425,14.812501,38.493752,-15.581250,23.677,-21.001,-88.923,,walk
2025-10-18T17:50:21.214906,32839,429,3.471000,-9.040051,0.169950,0.162489,0.140638,-0.231186,3.308511,-9.180689,0.401136,-1.052700,1.226225,0.073425,14.812501,38.493752,-15.581250,23.677,-21.001,-88.923,,walk
2025-10-18T17:50:21.265093,32889,430,3.471000,-9.040051,0.169950,0.162489,0.140638,-0.231186,3.308511,-9.180689,0.401136,-1.052700,1.226225,0.073425,14.812501,38.493752,-15.581250,23.677,-21.001,-88.923,,walk
2025-10-18T17:50:21.314870,32939,431,-0.838050,-10.342951,-0.729000,0.162489,0.140638,-0.231186,-1.000539,-10.483589,-0.497814,-1.052700,1.226225,0.073425,17.625000,39.431252,-12.206250,44.549,4.621,-94.032,,walk
2025-10-18T17:50:21.365010,32989,432,-0.838050,-10.342951,-0.729000,0.162489,0.140638,-0.231186,-1.000539,-10.483589,-0.497814,-1.052700,1.226225,0.073425,17.625000,39.431252,-12.206250,44.549,4.621,-94.032,,walk
2025-10-18T17:50:21.415611,33040,433,-0.838050,-10.342951,-0.729000,0.162489,0.140638,-0.231186,-1.000539,-10.483589,-0.497814,-1.052700,1.226225,0.073425,17.625000,39.431252,-12.206250,44.549,4.621,-94.032,,walk
2025-10-18T17:50:21.475945,33100,434,-0.838050,-10.342951,-0.729000,0.162489,0.140638,-0.231186,-1.000539,-10.483589,-0.497814,-1.052700,1.226225,0.073425,17.625000,39.431252,-12.206250,44.549,4.621,-94.032,,walk
2025-10-18T17:50:21.520367,33144,435,-1.048050,-9.250951,-0.364950,-0.060451,0.188958,0.293355,-0.987599,-9.439909,-0.658305,-0.605550,-2.604800,0.104637,18.018751,38.568752,-13.818750,46.561,6.459,-92.259,,walk
2025-10-18T17:50:21.565962,33190,436,-1.432050,-9.826051,-0.691050,-0.262491,0.078703,0.122414,-1.169559,-9.904754,-0.813464,-0.394762,-2.265588,0.138462,17.006250,38.137501,-15.543751,54.502,8.272,-94.023,,walk
2025-10-18T17:50:21.615051,33239,437,-2.217000,-10.591950,-0.825000,-0.229917,-0.009332,-0.092277,-1.987083,-10.582618,-0.732723,-0.176962,-2.476100,0.726412,16.125000,37.875000,-16.856251,61.443,11.787,-94.454,,walk
2025-10-18T17:50:21.665224,33289,438,-2.140050,-11.109000,-0.115950,-0.125894,0.001694,-0.095110,-2.014156,-11.110694,-0.020840,-0.220687,-2.739137,0.933213,14.756250,37.500000,-18.918751,63.368,10.903,-90.598,,walk
2025-10-18T17:50:21.715129,33339,439,-0.991050,-11.166000,0.036000,-0.258869,-0.127152,-0.096448,-0.732181,-11.038848,0.132448,-0.205975,-1.869725,0.463787,13.800000,37.256252,-20.343750,60.785,5.072,-89.815,,walk
2025-10-18T17:50:21.765187,33389,440,-0.991050,-11.166000,0.036000,-0.258869,-0.127152,-0.096448,-0.732181,-11.038848,0.132448,-0.205975,-1.869725,0.463787,13.800000,37.256252,-20.343750,60.785,5.072,-89.815,,walk
2025-10-18T17:50:22.316852,33941,441,-0.991050,-11.166000,0.036000,-0.258869,-0.127152,-0.096448,-0.732181,-11.038848,0.132448,-0.205975,-1.869725,0.463787,13.800000,37.256252,-20.343750,60.785,5.072,-89.815,,walk
2025-10-18T17:50:22.325504,33949,442,-0.876000,-8.829000,-3.564000,-0.258869,-0.127152,-0.096448,-0.617131,-8.701848,-3.467552,-0.205975,-1.869725,0.463787,11.737500,36.862503,-22.537500,74.876,5.257,-111.982,,walk
2025-10-18T17:50:22.368342,33992,443,-1.354950,-10.534051,-3.238050,-0.053145,-0.134069,-0.343222,-1.301805,-10.399982,-2.894828,-1.019837,2.099212,-0.327250,12.000000,36.900002,-21.881250,74.358,7.009,-107.087,,walk
2025-10-18T17:50:22.418337,34042,444,1.000050,-13.005001,-2.683050,0.027573,-0.306885,-0.320710,0.972477,-12.698116,-2.362340,-1.634050,0.948062,0.571450,12.412500,36.918751,-21.243752,62.890,-4.307,-101.657,,walk
2025-10-18T17:50:22.468108,34092,445,2.935050,-10.975051,-1.572000,0.027573,-0.306885,-0.320710,2.907477,-10.668166,-1.251290,-1.634050,0.948062,0.571450,12.675000,36.918751,-20.868752,51.343,-14.828,-98.151,,walk
2025-10-18T17:50:22.518077,34142,446,2.935050,-10.975051,-1.572000,0.027573,-0.306885,-0.320710,2.907477,-10.668166,-1.251290,-1.634050,0.948062,0.571450,12.675000,36.918751,-20.868752,51.343,-14.828,-98.151,,walk
2025-10-18T17:50:22.568207,34192,447,2.935050,-10.975051,-1.572000,0.027573,-0.306885,-0.320710,2.907477,-10.668166,-1.251290,-1.634050,0.948062,0.571450,12.675000,36.918751,-20.868752,51.343,-14.828,-98.151,,walk
2025-10-18T17:50:22.618244,34242,448,2.935050,-10.975051,-1.572000,0.027573,-0.306885,-0.320710,2.907477,-10.668166,-1.251290,-1.634050,0.948062,0.571450,12.675000,36.918751,-20.868752,51.343,-14.828,-98.151,,walk
2025-10-18T17:50:22.668260,34292,449,2.935050,-10.975051,-1.572000,0.027573,-0.306885,-0.320710,2.907477,-10.668166,-1.251290,-1.634050,0.948062,0.571450,12.675000,36.918751,-20.868752,51.343,-14.828,-98.151,,walk
2025-10-18T17:50:22.718129,34342,450,2.935050,-10.975051,-1.572000,0.027573,-0.306885,-0.320710,2.907477,-10.668166,-1.251290,-1.634050,0.948062,0.571450,12.675000,36.918751,-20.868752,51.343,-14.828,-98.151,,walk
2025-10-18T17:50:22.776721,34401,451,-0.760950,-9.001950,-0.019950,0.109811,0.200580,0.324031,-0.870761,-9.202530,-0.343981,-0.966075,-3.314713,0.605963,16.106251,37.762501,-16.743752,51.073,4.832,-90.127,,walk
2025-10-18T17:50:22.818775,34443,452,-1.489050,-9.481050,-0.364950,-0.000979,0.320414,0.327625,-1.488071,-9.801464,-0.692575,-1.084600,-2.590087,-0.023650,16.275002,37.593750,-16.875000,56.869,8.919,-92.204,,walk
2025-10-18T17:50:22.868247,34492,453,-2.101950,-10.266001,-0.499050,-0.356138,0.127635,0.112213,-1.745812,-10.393636,-0.611263,-0.382250,-1.795200,0.037950,15.881250,37.068752,-18.037500,62.172,11.558,-92.783,,walk
2025-10-18T17:50:22.918757,34543,454,-1.450950,-11.013000,-0.174000,-0.331192,-0.004436,-0.048487,-1.119758,-11.008564,-0.125513,0.006187,-1.954563,0.484825,15.056251,36.712502,-19.575001,60.596,7.504,-90.905,,walk
2025-10-18T17:50:22.968205,34592,455,-0.780000,-12.220051,0.285000,-0.229440,-0.139997,-0.092905,-0.550560,-12.080054,0.377905,0.091163,-1.951950,0.647075,13.856251,36.150002,-21.843750,60.332,3.651,-88.664,,walk
2025-10-18T17:50:23.018231,34642,456,-0.780000,-12.220051,0.285000,-0.229440,-0.139997,-0.092905,-0.550560,-12.080054,0.377905,0.091163,-1.951950,0.647075,13.856251,36.150002,-21.843750,60.332,3.651,-88.664,,walk
2025-10-18T17:50:23.533823,35158,457,-0.780000,-12.220051,0.285000,-0.229440,-0.139997,-0.092905,-0.550560,-12.080054,0.377905,0.091163,-1.951950,0.647075,13.856251,36.150002,-21.843750,60.332,3.651,-88.664,,walk
2025-10-18T17:50:23.582625,35207,458,-1.029000,-10.324051,-3.832050,-0.007020,-0.245955,-0.374154,-1.021980,-10.078096,-3.457896,-0.963188,2.407763,-0.927988,12.618751,36.075001,-23.437500,73.710,5.338,-110.364,,walk
2025-10-18T17:50:23.632920,35257,459,1.192050,-12.009001,-1.668000,0.023299,-0.318016,-0.288265,1.168751,-11.690985,-1.379735,-1.625113,1.075387,0.153038,12.900001,36.262501,-22.668751,60.006,-5.615,-97.908,,walk
2025-10-18T17:50:23.682942,35307,460,1.192050,-12.009001,-1.668000,0.023299,-0.318016,-0.288265,1.168751,-11.690985,-1.379735,-1.625113,1.075387,0.153038,12.900001,36.262501,-22.668751,60.006,-5.615,-97.908,,walk
2025-10-18T17:50:23.732821,35357,461,1.192050,-12.009001,-1.668000,0.023299,-0.318016,-0.288265,1.168751,-11.690985,-1.379735,-1.625113,1.075387,0.153038,12.900001,36.262501,-22.668751,60.006,-5.615,-97.908,,walk
2025-10-18T17:50:23.783639,35408,462,-2.656950,-10.726050,0.592050,0.023299,-0.318016,-0.288265,-2.680249,-10.408034,0.880315,-1.625113,1.075387,0.153038,13.781251,37.293751,-20.287500,67.864,13.892,-86.841,,walk
2025-10-18T17:50:23.833168,35457,463,-2.656950,-10.726050,0.592050,0.023299,-0.318016,-0.288265,-2.680249,-10.408034,0.880315,-1.625113,1.075387,0.153038,13.781251,37.293751,-20.287500,67.864,13.892,-86.841,,walk
2025-10-18T17:50:23.882957,35507,464,-2.656950,-10.726050,0.592050,0.023299,-0.318016,-0.288265,-2.680249,-10.408034,0.880315,-1.625113,1.075387,0.153038,13.781251,37.293751,-20.287500,67.864,13.892,-86.841,,walk
2025-10-18T17:50:23.943613,35568,465,-2.656950,-10.726050,0.592050,0.023299,-0.318016,-0.288265,-2.680249,-10.408034,0.880315,-1.625113,1.075387,0.153038,13.781251,37.293751,-20.287500,67.864,13.892,-86.841,,walk
2025-10-18T17:50:23.982557,35606,466,-1.278000,-9.193050,-0.423000,-0.037252,0.315233,0.335233,-1.240748,-9.508283,-0.758233,-0.836688,-2.887775,0.113163,14.737500,39.018753,-17.512501,60.041,7.906,-92.634,,walk
2025-10-18T17:50:24.033164,35657,467,-1.144050,-9.346951,-0.901050,-0.171105,0.296219,0.228773,-0.972945,-9.643170,-1.129823,-0.715688,-2.546362,0.077138,14.550000,39.075001,-17.493752,61.586,6.946,-95.506,,walk
2025-10-18T17:50:24.082918,35707,468,-1.317000,-10.132051,-0.709950,-0.270033,0.110911,-0.029355,-1.046967,-10.242962,-0.680595,-0.334812,-2.093163,0.227150,13.781251,38.737503,-18.487501,63.622,7.388,-94.008,,walk
2025-10-18T17:50:24.134272,35758,469,-1.987050,-10.611000,-0.346050,-0.171077,0.056380,-0.104851,-1.815973,-10.667380,-0.241199,-0.173112,-2.378200,0.566225,12.731251,38.362503,-20.025002,69.216,10.601,-91.868,,walk
2025-10-18T17:50:24.182724,35807,470,-2.274000,-11.128051,0.343050,-0.315718,-0.020031,-0.057053,-1.958282,-11.108020,0.400103,-0.053900,-2.113237,0.602938,11.212501,37.706253,-22.256250,74.065,11.544,-88.234,,walk
2025-10-18T17:50:24.232895,35857,471,-2.274000,-11.128051,0.343050,-0.315718,-0.020031,-0.057053,-1.958282,-11.108020,0.400103,-0.053900,-2.113237,0.602938,11.212501,37.706253,-22.256250,74.065,11.544,-88.234,,walk
2025-10-18T17:50:24.787331,36411,472,-2.274000,-11.128051,0.343050,-0.315718,-0.020031,-0.057053,-1.958282,-11.108020,0.400103,-0.053900,-2.113237,0.602938,11.212501,37.706253,-22.256250,74.065,11.544,-88.234,,walk
2025-10-18T17:50:24.820840,36445,473,0.559950,-10.132051,-4.522050,-0.051930,-0.241403,-0.377742,0.611880,-9.890648,-4.144308,-0.626863,2.623500,-0.869137,8.812500,36.918751,-25.087502,74.983,-2.889,-114.052,,walk
2025-10-18T17:50:24.869685,36494,474,1.038000,-12.334950,-2.568000,0.090766,-0.271379,-0.372553,0.947234,-12.063571,-2.195447,-1.511263,2.394150,-0.549175,9.018750,37.312500,-23.943750,70.089,-4.710,-101.760,,walk
2025-10-18T17:50:24.919347,36543,475,1.612950,-12.544950,-1.705950,0.149706,-0.306489,-0.332255,1.463244,-12.238461,-1.373695,-1.678187,1.989900,-0.218900,9.131250,37.462502,-23.475000,65.977,-7.260,-97.744,,walk
2025-10-18T17:50:24.969339,36593,476,1.612950,-12.544950,-1.705950,0.149706,-0.306489,-0.332255,1.463244,-12.238461,-1.373695,-1.678187,1.989900,-0.218900,9.131250,37.462502,-23.475000,65.977,-7.260,-97.744,,walk
2025-10-18T17:50:25.019416,36643,477,1.612950,-12.544950,-1.705950,0.149706,-0.306489,-0.332255,1.463244,-12.238461,-1.373695,-1.678187,1.989900,-0.218900,9.131250,37.462502,-23.475000,65.977,-7.260,-97.744,,walk
2025-10-18T17:50:25.069358,36693,478,-1.909950,-10.093950,-0.040050,0.149706,-0.306489,-0.332255,-2.059656,-9.787461,0.292205,-1.678187,1.989900,-0.218900,10.181251,38.662502,-20.775002,74.706,10.715,-90.227,,walk
2025-10-18T17:50:25.119366,36743,479,-1.909950,-10.093950,-0.040050,0.149706,-0.306489,-0.332255,-2.059656,-9.787461,0.292205,-1.678187,1.989900,-0.218900,10.181251,38.662502,-20.775002,74.706,10.715,-90.227,,walk
2025-10-18T17:50:25.171569,36796,480,-1.909950,-10.093950,-0.040050,0.149706,-0.306489,-0.332255,-2.059656,-9.787461,0.292205,-1.678187,1.989900,-0.218900,10.181251,38.662502,-20.775002,74.706,10.715,-90.227,,walk
2025-10-18T17:50:25.219220,36843,481,-1.756950,-8.676001,-1.093050,-0.145778,0.241939,0.324449,-1.611172,-8.917940,-1.417499,-0.950950,-3.182437,0.316250,11.587501,40.406250,-18.412500,72.956,11.361,-97.181,,walk
2025-10-18T17:50:25.270700,36895,482,-1.297050,-9.097950,-1.323000,-0.202135,0.289801,0.289060,-1.094915,-9.387751,-1.612060,-1.037575,-2.619375,0.128975,11.550000,40.575001,-18.243752,70.652,8.030,-98.274,,walk
2025-10-18T17:50:25.319615,36944,483,-1.278000,-9.346951,-1.054950,-0.301719,0.265409,0.097503,-0.976281,-9.612360,-1.152453,-0.575988,-1.925275,0.200475,11.343750,40.481251,-18.506250,70.184,7.737,-96.439,,walk
2025-10-18T17:50:25.371662,36996,484,-2.217000,-9.997951,-0.499050,-0.314332,0.157190,-0.014472,-1.902668,-10.155141,-0.484578,-0.232100,-1.871513,0.334950,10.387501,40.012501,-20.081251,76.316,12.488,-92.858,,walk
2025-10-18T17:50:25.419346,37043,485,-1.852950,-11.395950,0.514950,-0.179940,0.005462,-0.015573,-1.673010,-11.401412,0.530523,0.227975,-1.614938,0.341412,9.450001,39.487503,-21.618752,74.438,9.226,-87.413,,walk
2025-10-18T17:50:25.469931,37094,486,-1.852950,-11.395950,0.514950,-0.179940,0.005462,-0.015573,-1.673010,-11.401412,0.530523,0.227975,-1.614938,0.341412,9.450001,39.487503,-21.618752,74.438,9.226,-87.413,,walk
2025-10-18T17:50:25.607486,37231,487,-1.852950,-11.395950,0.514950,-0.179940,0.005462,-0.015573,-1.673010,-11.401412,0.530523,0.227975,-1.614938,0.341412,9.450001,39.487503,-21.618752,74.438,9.226,-87.413,,walk
2025-10-18T17:50:25.619409,37243,488,2.226000,-12.411000,-0.442050,0.228848,-0.429142,0.117431,1.997152,-11.981858,-0.559481,0.370838,1.634737,-1.399063,5.868750,38.043751,-27.506250,68.780,-10.162,-92.040,,walk
2025-10-18T17:50:25.669728,37294,489,-1.068000,-11.166000,-1.207950,0.150569,-0.446569,0.083678,-1.218569,-10.719431,-1.291628,-0.184525,2.131938,-1.389987,5.606250,38.287502,-27.300001,84.594,5.432,-96.174,,walk
2025-10-18T17:50:25.720285,37344,490,-0.876000,-8.868000,-0.327000,0.136604,-0.324438,0.072743,-1.012604,-8.543562,-0.399743,-0.416900,2.097700,-0.988212,5.625000,38.625000,-26.662500,84.032,5.638,-92.112,,walk
2025-10-18T17:50:25.770779,37395,491,-0.340050,-5.074950,0.265950,0.120810,0.038969,0.139771,-0.460860,-5.113919,0.126179,-0.364650,0.888112,0.439862,6.075000,39.150002,-25.106251,79.373,3.828,-87.000,,walk
2025-10-18T17:50:25.821254,37445,492,0.175950,-4.462050,-0.211950,0.143462,0.257371,0.142568,0.032488,-4.719421,-0.354518,-0.221100,0.318312,1.033450,6.600000,39.562500,-23.868752,73.503,-2.256,-92.720,,walk
2025-10-18T17:50:25.869627,37494,493,-0.013950,-5.439000,-1.629000,0.217818,0.459765,0.019466,-0.231768,-5.898765,-1.648466,-0.127188,0.676225,1.022450,7.500000,40.331253,-21.806252,77.087,0.141,-106.673,,walk
2025-10-18T17:50:25.922320,37546,494,-0.780000,-8.121000,-5.767050,0.202748,0.480057,-0.225333,-0.982748,-8.601057,-5.541717,-1.000312,0.421025,0.565675,8.100000,40.931252,-20.418751,80.976,4.478,-125.380,,walk
2025-10-18T17:50:25.970734,37595,495,-2.446950,-12.469050,-8.869950,0.015379,0.274423,-0.690812,-2.462329,-12.743473,-8.179138,-2.792075,-0.428175,-0.078237,9.056251,41.925003,-18.243752,81.414,9.085,-125.426,,walk
2025-10-18T17:50:26.020428,37644,496,-1.660950,-9.883051,-5.881950,-0.238087,0.271351,-0.819849,-1.422863,-10.154402,-5.062101,-3.305088,-1.527763,-0.057475,10.256250,42.937500,-15.900001,77.898,8.218,-120.759,,walk
2025-10-18T17:50:26.070488,37694,497,-2.313000,-8.752951,-4.177050,-0.175389,0.333618,-0.756239,-2.137611,-9.086569,-3.420811,-2.530688,-1.528038,0.110825,11.006250,43.556252,-14.475000,77.725,13.414,-115.511,,walk
2025-10-18T17:50:26.119459,37743,498,-1.048050,-12.660001,-3.085050,-0.280895,0.204124,-0.558141,-0.767155,-12.864125,-2.526909,-0.089650,-0.540925,0.232925,12.225000,44.175003,-12.618751,64.693,4.598,-103.695,,walk
2025-10-18T17:50:26.170099,37794,499,3.298950,-9.576000,-1.189050,-0.241949,0.234949,-0.455552,3.540899,-9.810949,-0.733498,1.138775,0.515625,0.124163,13.031251,44.325001,-11.737500,37.332,-18.874,-97.078,,walk
2025-10-18T17:50:26.220215,37844,500,0.424950,-9.040051,0.783000,-0.114142,0.354573,-0.162964,0.539092,-9.394624,0.945964,2.687988,2.680425,-0.089925,13.612500,44.418751,-11.137501,25.109,-2.681,-85.050,,walk
2025-10-18T17:50:26.271597,37896,501,-3.979050,-10.897950,2.584050,-0.190720,0.281477,0.053185,-3.788330,-11.179427,2.530865,3.175287,3.676200,0.044550,14.212501,44.268753,-11.043751,25.101,19.559,-76.661,,walk
2025-10-18T17:50:26.320348,37944,502,0.598050,-9.960000,-0.805950,-0.115050,0.002124,0.048403,0.713100,-9.962124,-0.854353,2.776537,3.313750,-0.064625,14.456250,44.043751,-11.531250,43.133,-3.425,-94.626,,walk
2025-10-18T17:50:26.370988,37995,503,2.245050,-8.599951,-0.576000,0.119450,-0.235874,-0.033011,2.125600,-8.364077,-0.542989,1.500125,0.813587,0.167612,14.437501,43.687500,-12.881250,34.256,-14.599,-93.832,,walk
2025-10-18T17:50:26.419297,38043,504,-0.109950,-8.829000,0.247050,0.085658,-0.354345,0.006435,-0.195608,-8.474655,0.240615,0.555363,-0.761612,0.112475,13.950001,43.293751,-14.512501,44.369,0.713,-88.397,,walk
2025-10-18T17:50:26.469659,38094,505,-0.742050,-8.485050,0.073950,0.002733,-0.363153,0.147587,-0.744783,-8.121897,-0.073637,-0.380600,-1.943838,-0.230450,13.556251,42.918751,-15.675000,53.528,4.998,-89.501,,walk
2025-10-18T17:50:26.520260,38144,506,-1.144050,-9.097950,-0.040050,0.020847,-0.206769,0.427154,-1.164897,-8.891181,-0.467204,-0.454437,-2.324575,-0.153450,13.162500,42.506252,-16.912500,59.528,7.167,-90.252,,walk
2025-10-18T17:50:26.570727,38195,507,-0.685050,-10.303950,-0.231000,0.121868,0.038988,0.765902,-0.806918,-10.342938,-0.996902,-0.215875,-2.488338,0.175175,12.468751,41.700001,-18.918751,61.536,3.803,-91.284,,walk
2025-10-18T17:50:26.620469,38244,508,-1.240050,-10.801950,-0.097050,0.094534,-0.000791,0.811548,-1.334584,-10.801159,-0.908598,-0.006462,-2.802113,0.710875,11.756250,41.156250,-20.475000,67.034,6.549,-90.515,,walk
2025-10-18T17:50:26.669692,38294,509,-1.909950,-11.166000,0.112950,0.108461,-0.106239,0.656777,-2.018411,-11.059761,-0.543827,-0.092262,-2.821637,0.955763,10.556251,40.293751,-22.762501,74.578,9.706,-89.420,,walk
2025-10-18T17:50:26.719477,38343,510,-1.411950,-10.801950,-0.135000,0.087911,0.014235,0.552913,-1.499861,-10.816185,-0.687913,-0.189475,-2.078862,0.555637,9.037500,39.487503,-24.918751,77.737,7.446,-90.716,,walk
2025-10-18T17:50:26.769600,38394,511,-0.856950,-10.477051,0.400050,-0.209983,-0.055535,0.346750,-0.646967,-10.421516,0.053300,-0.073700,-1.166137,0.185625,8.043751,39.018753,-26.325001,76.974,4.673,-87.813,,walk
2025-10-18T17:50:26.820756,38445,512,0.196050,-10.515000,0.438000,-0.212816,-0.110439,0.211888,0.408866,-10.404561,0.226112,0.059538,-0.731363,0.013062,7.312500,38.587502,-27.543751,73.113,-1.067,-87.615,,walk
2025-10-18T17:50:26.870890,38495,513,2.896050,-11.703001,1.108950,0.253103,-0.092851,0.041244,2.642947,-11.610150,1.067706,0.313087,0.419787,-0.736588,6.375000,38.306252,-28.687502,59.991,-13.840,-84.587,,walk
2025-10-18T17:50:26.922254,38546,514,3.030000,-12.469050,0.189000,0.326935,-0.145147,0.068033,2.703065,-12.323903,0.120967,0.300575,1.352312,-1.335263,5.756250,38.362503,-28.987501,64.626,-13.657,-89.132,,walk
2025-10-18T17:50:26.969626,38594,515,-0.109950,-11.607000,-0.652050,0.065870,-0.290812,0.057216,-0.175820,-11.316188,-0.709266,0.056238,2.087250,-1.558012,5.212500,38.681252,-28.593752,80.875,0.542,-93.215,,walk
2025-10-18T17:50:27.019465,38643,516,-1.642050,-9.078000,-0.250050,-0.054117,-0.224626,-0.010575,-1.587933,-8.853374,-0.239475,-0.343062,1.655500,-0.646937,5.343750,39.112503,-27.431252,89.254,10.249,-91.578,,walk
2025-10-18T17:50:27.069139,38693,517,-1.162950,-6.799050,-0.001050,-0.061392,-0.090225,-0.014058,-1.101558,-6.708825,0.013008,-0.480975,0.830362,0.331375,5.718750,39.506252,-26.287500,87.434,9.706,-90.009,,walk
2025-10-18T17:50:27.119549,38743,518,-0.282000,-5.248050,-0.327000,-0.003446,0.184402,-0.010987,-0.278554,-5.432452,-0.316013,-0.456638,-0.212300,1.348875,6.600000,40.125000,-24.393751,78.990,3.070,-93.565,,walk
2025-10-18T17:50:27.169926,38794,519,-0.166950,-5.515950,-0.997050,0.015703,0.340502,-0.030722,-0.182653,-5.856452,-0.966328,-0.392425,-0.279263,1.464650,7.331250,40.593750,-23.118752,77.591,1.706,-100.246,,walk
2025-10-18T17:50:27.219828,38844,520,-1.048050,-8.274000,-4.732050,0.046686,0.402071,-0.225931,-1.094736,-8.676071,-4.506119,-0.955075,0.384450,0.815512,8.118751,41.081253,-21.768751,81.893,6.275,-119.766,,walk
2025-10-18T17:50:27.271573,38896,521,-4.056000,-11.664001,-7.165051,-0.090596,0.212496,-0.565922,-3.965404,-11.876497,-6.599128,-2.318112,-0.045375,0.297412,9.356251,41.925003,-19.650002,85.189,16.504,-121.562,,walk
2025-10-18T17:50:27.319836,38944,522,-4.534950,-10.209001,-6.897000,-0.212664,0.142930,-0.693091,-4.322286,-10.351931,-6.203909,-2.838275,-0.596613,0.280362,10.968750,42.768753,-17.175001,83.845,20.208,-124.042,,walk
2025-10-18T17:50:27.370463,38994,523,-2.542050,-7.909950,-3.411000,-0.287171,0.211284,-0.655125,-2.254879,-8.121234,-2.755875,-2.433887,-1.598163,0.637038,12.093751,43.256252,-15.525001,78.016,16.442,-113.327,,walk
2025-10-18T17:50:27.419316,39043,524,-2.542050,-10.132051,-3.487050,-0.338808,0.202957,-0.610042,-2.203242,-10.335008,-2.877008,-1.245062,-1.176862,0.642950,13.668751,43.762501,-13.312501,70.864,13.346,-108.991,,walk
2025-10-18T17:50:27.469489,39093,525,1.632000,-12.469050,-2.740050,-0.352734,0.040414,-0.562148,1.984734,-12.509464,-2.177902,0.712663,0.435737,0.244337,14.681251,43.893753,-12.150001,50.267,-7.285,-102.394,,walk
2025-10-18T17:50:27.519765,39144,526,3.049950,-9.672001,-0.268950,-0.206203,0.136629,-0.416708,3.256153,-9.808630,0.147758,1.856663,2.364725,-0.206937,15.975000,43.893753,-11.100000,20.656,-17.496,-91.593,,walk
2025-10-18T17:50:27.569500,39193,527,-0.493050,-9.174001,1.453950,-0.041843,0.223690,-0.082195,-0.451207,-9.397691,1.536145,2.893000,4.708138,-0.743600,16.518751,43.800003,-10.987500,16.935,3.039,-80.994,,walk
2025-10-18T17:50:27.619678,39244,528,-2.121000,-10.534051,0.630000,-0.046913,0.109243,0.007619,-2.074087,-10.643294,0.622381,2.822463,4.846188,-0.717337,17.062500,43.518753,-11.475000,39.647,11.364,-86.577,,walk
2025-10-18T17:50:27.670511,39294,529,0.732000,-8.772000,-0.787050,0.028698,-0.131971,-0.054652,0.703302,-8.640029,-0.732398,1.994162,2.701600,-0.362725,17.193750,43.312500,-12.168751,38.692,-4.751,-95.127,,walk
2025-10-18T17:50:27.721635,39346,530,0.483000,-8.619000,-0.403050,0.084690,-0.279607,-0.031609,0.398310,-8.339393,-0.371441,0.891275,-0.677600,0.430650,16.987501,43.012501,-13.368751,39.106,-3.204,-92.677,,walk
2025-10-18T17:50:27.769635,39394,531,-0.187050,-9.040051,-0.289050,0.060809,-0.327882,0.030836,-0.247859,-8.712169,-0.319886,0.100375,-2.193400,0.485375,16.668751,42.787502,-14.231251,44.223,1.185,-91.831,,walk
2025-10-18T17:50:27.821043,39445,532,-0.262950,-8.809951,0.016950,0.108975,-0.178606,0.322514,-0.371925,-8.631345,-0.305564,-0.431475,-2.660763,0.110137,15.993751,42.356251,-15.656251,45.954,1.710,-89.890,,walk
2025-10-18T17:50:27.869626,39494,533,-0.262950,-8.809951,0.016950,0.108975,-0.178606,0.322514,-0.371925,-8.631345,-0.305564,-0.431475,-2.660763,0.110137,15.993751,42.356251,-15.656251,45.954,1.710,-89.890,,walk
2025-10-18T17:50:28.599976,40224,534,-0.262950,-8.809951,0.016950,0.108975,-0.178606,0.322514,-0.371925,-8.631345,-0.305564,-0.431475,-2.660763,0.110137,15.993751,42.356251,-15.656251,45.954,1.710,-89.890,,walk
2025-10-18T17:50:28.650382,40274,535,-3.768000,-7.891050,-3.295950,-0.433172,0.009116,-0.470226,-3.334828,-7.900166,-2.825724,-0.002062,-0.003850,0.003575,14.118751,41.287502,-19.312500,82.200,23.779,-112.669,,walk
2025-10-18T17:50:28.697266,40321,536,-2.025000,-8.695050,-1.207950,-0.298371,0.099013,-0.419803,-1.726629,-8.794063,-0.788147,-0.001375,-0.001512,-0.003712,14.081250,41.287502,-19.387501,71.215,12.990,-97.909,,walk
2025-10-18T17:50:28.749947,40374,537,1.345050,-14.001000,-2.587050,-0.124067,-0.175367,-0.305533,1.469117,-13.825633,-2.281517,1.257300,0.248462,0.145200,14.212501,41.175003,-19.500000,57.673,-5.397,-100.469,,walk
2025-10-18T17:50:28.798661,40423,538,4.773000,-10.783051,-1.093050,0.072084,-0.262501,-0.245504,4.700916,-10.520550,-0.847546,2.061125,1.877700,-0.274588,14.418751,41.100002,-19.387501,37.319,-23.768,-95.788,,walk
2025-10-18T17:50:28.847553,40471,539,1.171950,-8.752951,3.177000,0.214544,-0.137290,0.006417,0.957406,-8.615661,3.170583,2.786712,4.430112,-1.252900,14.212501,41.156250,-19.293751,7.876,-7.173,-70.051,,walk
2025-10-18T17:50:28.898214,40522,540,-2.581050,-10.936050,1.377000,0.001778,-0.163023,0.154585,-2.582828,-10.773027,1.222415,2.459875,4.152637,-1.173838,14.062501,41.212502,-19.256250,60.787,13.179,-82.823,,walk
2025-10-18T17:50:28.947599,40572,541,-0.703950,-9.844951,-0.364950,-0.025421,-0.156031,0.090364,-0.678529,-9.688920,-0.455314,2.050538,2.589675,-0.652025,13.950001,41.231251,-19.312500,60.062,4.087,-92.123,,walk
2025-10-18T17:50:28.997526,40621,542,1.267950,-8.964001,-0.480000,0.136374,0.012687,0.047263,1.131576,-8.976688,-0.527263,1.224025,-0.999625,0.916987,13.837501,41.212502,-19.293751,49.714,-8.040,-93.065,,walk
2025-10-18T17:50:29.047501,40671,543,-1.029000,-9.595950,-0.901050,0.122015,0.046824,0.133043,-1.151015,-9.642774,-1.034093,0.303187,-3.259162,1.491325,13.556251,41.250000,-19.406250,65.011,6.094,-95.364,,walk
2025-10-18T17:50:29.097809,40722,544,-1.795050,-9.270000,-0.787050,0.003210,0.060317,0.029441,-1.798260,-9.330317,-0.816491,-0.928125,-4.438363,1.239150,13.312501,41.306252,-19.350000,69.336,10.921,-94.853,,walk
2025-10-18T17:50:29.150170,40774,545,-1.699950,-9.711000,-0.709950,-0.000190,0.111452,0.176570,-1.699760,-9.822452,-0.886520,-1.318763,-4.331250,0.841637,12.543751,41.118752,-19.987501,70.209,9.903,-94.181,,walk
2025-10-18T17:50:29.197365,40821,546,-1.450950,-10.362000,-0.997050,0.096738,0.122564,0.472710,-1.547688,-10.484564,-1.469760,-1.052975,-3.070787,0.489363,11.418751,40.687500,-21.356251,72.501,7.935,-95.496,,walk
2025-10-18T17:50:29.247314,40871,547,-1.411950,-11.205001,-0.174000,0.186840,-0.053238,0.479782,-1.598790,-11.151763,-0.653782,-0.512050,-2.351938,0.474375,10.200001,40.275002,-22.781250,73.468,7.181,-90.890,,walk
2025-10-18T17:50:29.297238,40921,548,-1.411950,-11.205001,-0.174000,0.186840,-0.053238,0.479782,-1.598790,-11.151763,-0.653782,-0.512050,-2.351938,0.474375,10.200001,40.275002,-22.781250,73.468,7.181,-90.890,,walk
2025-10-18T17:50:29.347212,40971,549,-1.411950,-11.205001,-0.174000,0.186840,-0.053238,0.479782,-1.598790,-11.151763,-0.653782,-0.512050,-2.351938,0.474375,10.200001,40.275002,-22.781250,73.468,7.181,-90.890,,walk
2025-10-18T17:50:29.397304,41021,550,2.800950,-10.897950,0.457950,0.201597,-0.114625,-0.043044,2.599353,-10.783325,0.500994,0.574612,1.226362,-1.053525,6.018750,39.562500,-26.756250,61.229,-14.402,-87.594,,walk
2025-10-18T17:50:29.447327,41071,551,-0.166950,-11.932051,-0.211950,0.081454,-0.251206,-0.017900,-0.248404,-11.680845,-0.194050,0.348700,2.265862,-1.320138,5.325000,39.731251,-26.906252,79.865,0.801,-91.018,,walk
2025-10-18T17:50:29.498131,41122,552,-2.025000,-11.415001,-0.882000,-0.011186,-0.259134,-0.005637,-2.013814,-11.155867,-0.876363,0.105600,2.424537,-1.049675,5.193750,39.937500,-26.493752,89.045,10.030,-94.418,,walk
2025-10-18T17:50:29.547180,41171,553,-0.415950,-8.542050,-0.384000,0.044046,-0.155588,0.006469,-0.459996,-8.386462,-0.390469,-0.315562,1.847312,-0.067375,5.587500,40.331253,-25.181252,80.901,2.785,-92.574,,walk
2025-10-18T17:50:29.597321,41221,554,-0.415950,-8.542050,-0.384000,0.044046,-0.155588,0.006469,-0.459996,-8.386462,-0.390469,-0.315562,1.847312,-0.067375,5.887500,40.462502,-24.618752,80.037,2.785,-92.574,,walk
2025-10-18T17:50:29.714206,41338,555,-0.415950,-8.542050,-0.384000,0.044046,-0.155588,0.006469,-0.459996,-8.386462,-0.390469,-0.315562,1.847312,-0.067375,5.887500,40.462502,-24.618752,80.037,2.785,-92.574,,walk
2025-10-18T17:50:29.747369,41371,556,-1.719000,-8.599951,-5.671050,-0.004932,0.527418,-0.342230,-1.714068,-9.127369,-5.328820,-1.298962,1.810050,-0.226737,10.425000,42.056252,-18.412500,79.659,9.474,-123.402,,walk
2025-10-18T17:50:29.798485,41422,557,-3.901950,-11.281051,-7.222050,-0.183525,0.303712,-0.638257,-3.718425,-11.584763,-6.583793,-2.133175,-0.608300,-0.019112,11.550000,42.600002,-16.875000,80.802,16.241,-122.627,,walk
2025-10-18T17:50:29.847743,41472,558,-4.036950,-9.538051,-5.689950,-0.362480,0.250658,-0.709311,-3.674470,-9.788709,-4.980639,-2.440763,-2.472800,0.381700,13.462501,43.350002,-14.362500,78.404,19.975,-120.818,,walk
2025-10-18T17:50:29.897401,41521,559,-2.064000,-9.289050,-2.011950,-0.512596,0.263708,-0.560576,-1.551404,-9.552758,-1.451374,-1.642575,-2.953362,0.705513,14.718751,43.725002,-12.768750,64.527,12.252,-102.221,,walk
2025-10-18T17:50:29.947382,41571,560,-0.570000,-13.446001,-2.740050,-0.399267,0.122278,-0.473584,-0.170733,-13.568279,-2.266466,-0.391463,-1.573000,0.469837,15.937501,43.968750,-11.400001,53.114,2.379,-101.518,,walk
2025-10-18T17:50:29.997293,41621,561,-0.570000,-13.446001,-2.740050,-0.399267,0.122278,-0.473584,-0.170733,-13.568279,-2.266466,-0.391463,-1.573000,0.469837,15.937501,43.968750,-11.400001,53.114,2.379,-101.518,,walk
2025-10-18T17:50:30.339940,41964,562,-0.570000,-13.446001,-2.740050,-0.399267,0.122278,-0.473584,-0.170733,-13.568279,-2.266466,-0.391463,-1.573000,0.469837,15.937501,43.968750,-11.400001,53.114,2.379,-101.518,,walk
2025-10-18T17:50:30.361378,41985,563,0.118950,-9.556951,-0.595050,0.045610,-0.401685,0.095446,0.073340,-9.155266,-0.690496,2.065387,2.430175,-1.294425,18.375000,42.956253,-11.737500,37.393,-0.712,-93.563,,walk
2025-10-18T17:50:30.408579,42033,564,-1.297050,-9.691051,-0.423000,-0.051052,-0.406185,0.116602,-1.245998,-9.284866,-0.539602,1.258813,-0.585612,-0.317075,17.606251,42.600002,-13.200001,47.707,7.616,-92.499,,walk
