timestamp_iso,session_ms,sample_idx,acc_x,acc_y,acc_z,useracc_x,useracc_y,useracc_z,gravity_x,gravity_y,gravity_z,gyro_x,gyro_y,gyro_z,mag_x,mag_y,mag_z,yaw_deg,pitch_deg,roll_deg,pressure_hpa,label
2025-10-28T17:44:47.958556,51,0,-5.607520,0.964863,9.536405,-5.127440,-7.403616,8.186508,-0.480079,8.368479,1.349896,-0.098884,-0.546877,-0.156305,43.259998,-1.440000,-9.240000,-2.749,30.329,5.777,,walk
2025-10-28T17:44:48.007929,100,1,-5.607520,0.964863,9.536405,-5.127440,-7.403616,8.186508,-0.480079,8.368479,1.349896,-0.098884,-0.546877,-0.156305,43.259998,-1.440000,-9.240000,-2.749,30.329,5.777,,walk
2025-10-28T17:44:48.057941,150,2,-5.607520,0.964863,9.536405,-5.127440,-7.403616,8.186508,-0.480079,8.368479,1.349896,-0.098884,-0.546877,-0.156305,43.259998,-1.440000,-9.240000,-2.749,30.329,5.777,,walk
2025-10-28T17:44:48.108500,201,3,-5.607520,0.964863,9.536405,-5.671576,-8.679174,7.759217,0.064056,9.644038,1.777187,-0.429362,-0.870636,-0.259541,43.259998,-1.440000,-9.240000,-2.749,30.329,5.777,,walk
2025-10-28T17:44:48.158081,250,4,-3.888184,1.304840,7.273884,-5.671576,-8.679174,7.759217,1.783392,9.984014,-0.485333,-0.429362,-0.870636,-0.259541,41.279999,2.760000,-18.180000,-17.689,27.751,10.170,,walk
2025-10-28T17:44:48.208017,300,5,-3.888184,1.304840,7.273884,-5.671576,-8.679174,7.759217,1.783392,9.984014,-0.485333,-0.429362,-0.870636,-0.259541,41.279999,2.760000,-18.180000,-17.689,27.751,10.170,,walk
2025-10-28T17:44:48.258003,350,6,-3.888184,1.304840,7.273884,-4.441538,-8.301766,5.382569,0.553354,9.606606,1.891315,-0.314519,-0.914007,0.591394,41.279999,2.760000,-18.180000,-17.689,27.751,10.170,,walk
2025-10-28T17:44:48.308190,401,7,-3.888184,1.304840,7.273884,-4.441538,-8.301766,5.382569,0.553354,9.606606,1.891315,-0.314519,-0.914007,0.591394,41.279999,2.760000,-18.180000,-17.689,27.751,10.170,,walk
2025-10-28T17:44:48.358286,451,8,-1.568202,1.575385,11.375152,-4.441538,-8.301766,5.382569,2.873336,9.877151,5.992582,-0.314519,-0.914007,0.591394,35.099998,2.460000,-25.799999,-11.903,7.776,7.885,,walk
2025-10-28T17:44:48.408037,500,9,-1.568202,1.575385,11.375152,-4.441538,-8.301766,5.382569,2.873336,9.877151,5.992582,-0.314519,-0.914007,0.591394,35.099998,2.460000,-25.799999,-11.903,7.776,7.885,,walk
2025-10-28T17:44:48.458016,550,10,-1.568202,1.575385,11.375152,-3.070253,-7.996398,9.860230,1.502051,9.571783,1.514921,0.447230,-0.407600,-0.326737,35.099998,2.460000,-25.799999,-11.903,7.776,7.885,,walk
2025-10-28T17:44:48.508433,601,11,0.174777,0.869095,10.398317,-3.070253,-7.996398,9.860230,3.245030,8.865494,0.538087,0.447230,-0.407600,-0.326737,35.099998,2.460000,-25.799999,-7.300,-0.960,4.778,,walk
2025-10-28T17:44:48.558671,651,12,0.174777,0.869095,10.398317,-3.070253,-7.996398,9.860230,3.245030,8.865494,0.538087,0.447230,-0.407600,-0.326737,32.219997,-0.240000,-30.119999,-3.889,-0.960,4.778,,walk
2025-10-28T17:44:48.608360,701,13,0.174777,0.869095,10.398317,-1.246648,-8.780174,9.377853,1.421425,9.649269,1.020464,-0.290695,0.653473,0.196775,32.219997,-0.240000,-30.119999,-3.889,-0.960,4.778,,walk
2025-10-28T17:44:48.658594,751,14,0.174777,0.869095,10.398317,-1.246648,-8.780174,9.377853,1.421425,9.649269,1.020464,-0.290695,0.653473,0.196775,32.219997,-0.240000,-30.119999,-3.889,-0.960,4.778,,walk
2025-10-28T17:44:48.708703,801,15,0.203507,2.181118,7.190087,-1.246648,-8.780174,9.377853,1.450155,10.961292,-2.187767,-0.290695,0.653473,0.196775,32.219997,-0.240000,-30.119999,-14.039,-1.551,16.875,,walk
2025-10-28T17:44:48.758444,851,16,0.203507,2.181118,7.190087,-1.246648,-8.780174,9.377853,1.450155,10.961292,-2.187767,-0.290695,0.653473,0.196775,32.219997,-3.060000,-29.639999,-9.323,-1.551,16.875,,walk
2025-10-28T17:44:48.808086,900,17,0.203507,2.181118,7.190087,-1.898535,-7.286942,5.738397,2.102043,9.468059,1.451690,0.140575,-0.471130,0.080100,32.219997,-3.060000,-29.639999,-9.323,-1.551,16.875,,walk
2025-10-28T17:44:48.860082,952,18,0.203507,2.181118,7.190087,-1.898535,-7.286942,5.738397,2.102043,9.468059,1.451690,0.140575,-0.471130,0.080100,32.219997,-3.060000,-29.639999,-9.323,-1.551,16.875,,walk
2025-10-28T17:44:48.908350,1001,19,0.158017,2.650381,8.217199,-1.898535,-7.286942,5.738397,2.056553,9.937323,2.478803,0.140575,-0.471130,0.080100,32.219997,-3.060000,-29.639999,-10.386,-1.048,17.877,,walk
2025-10-28T17:44:48.958155,1051,20,0.158017,2.650381,8.217199,-2.092329,-6.874988,7.606131,2.250346,9.525369,0.611068,1.386740,-3.302490,0.067272,30.240000,-4.320000,-32.639999,-10.540,-1.048,17.877,,walk
2025-10-28T17:44:49.008896,1101,21,0.158017,2.650381,8.217199,-2.092329,-6.874988,7.606131,2.250346,9.525369,0.611068,1.386740,-3.302490,0.067272,30.240000,-4.320000,-32.639999,-10.540,-1.048,17.877,,walk
2025-10-28T17:44:49.058453,1151,22,3.940856,-0.071826,8.001721,-2.092329,-6.874988,7.606131,6.033185,6.803162,0.395590,1.386740,-3.302490,0.067272,30.240000,-4.320000,-32.639999,6.131,-26.219,-0.514,,walk
2025-10-28T17:44:49.108534,1201,23,3.940856,-0.071826,8.001721,-2.092329,-6.874988,7.606131,6.033185,6.803162,0.395590,1.386740,-3.302490,0.067272,7.980000,-13.020000,-45.180000,26.212,-26.219,-0.514,,walk
2025-10-28T17:44:49.158212,1251,24,3.940856,-0.071826,8.001721,-0.741336,-8.644151,8.874732,4.682192,8.572325,-0.873011,-0.484340,-0.912175,1.193707,7.980000,-13.020000,-45.180000,26.212,-26.219,-0.514,,walk
2025-10-28T17:44:49.209088,1301,25,3.940856,-0.071826,8.001721,-0.741336,-8.644151,8.874732,4.682192,8.572325,-0.873011,-0.484340,-0.912175,1.193707,7.980000,-13.020000,-45.180000,26.212,-26.219,-0.514,,walk
2025-10-28T17:44:49.258347,1351,26,5.712864,2.164358,9.390358,-0.741336,-8.644151,8.874732,6.454201,10.808509,0.515626,-0.484340,-0.912175,1.193707,7.980000,-13.020000,-45.180000,9.254,-30.661,12.979,,walk
2025-10-28T17:44:49.308186,1401,27,5.712864,2.164358,9.390358,-0.741336,-8.644151,8.874732,6.454201,10.808509,0.515626,-0.484340,-0.912175,1.193707,7.980000,-13.020000,-45.180000,9.254,-30.661,12.979,,walk
2025-10-28T17:44:49.358736,1451,28,5.712864,2.164358,9.390358,0.275367,-5.991171,9.088560,5.437498,8.155529,0.301798,-0.268093,0.429286,0.237703,4.020000,-9.900000,-48.480000,1.507,-30.661,12.979,,walk
2025-10-28T17:44:49.408133,1501,29,5.674557,0.940921,10.032004,0.275367,-5.991171,9.088560,5.399190,6.932092,0.943444,-0.268093,0.429286,0.237703,4.020000,-9.900000,-48.480000,12.592,-29.387,5.358,,walk
2025-10-28T17:44:49.458042,1550,30,5.674557,0.940921,10.032004,0.275367,-5.991171,9.088560,5.399190,6.932092,0.943444,-0.268093,0.429286,0.237703,4.020000,-9.900000,-48.480000,12.592,-29.387,5.358,,walk
2025-10-28T17:44:49.508621,1601,31,5.674557,0.940921,10.032004,0.050690,-7.087451,9.736588,5.623867,8.028373,0.295417,0.330554,-0.802219,0.256029,4.020000,-9.900000,-48.480000,12.592,-29.387,5.358,,walk
2025-10-28T17:44:49.558318,1651,32,5.674557,0.940921,10.032004,0.050690,-7.087451,9.736588,5.623867,8.028373,0.295417,0.330554,-0.802219,0.256029,5.820000,-10.020000,-48.779999,12.204,-29.387,5.358,,walk
2025-10-28T17:44:49.608019,1700,33,7.010522,-1.539472,7.264307,0.050690,-7.087451,9.736588,6.959832,5.547980,-2.472281,0.330554,-0.802219,0.256029,5.820000,-10.020000,-48.779999,23.407,-43.353,-11.965,,walk
2025-10-28T17:44:49.658550,1751,34,7.010522,-1.539472,7.264307,0.050690,-7.087451,9.736588,6.959832,5.547980,-2.472281,0.330554,-0.802219,0.256029,5.820000,-10.020000,-48.779999,23.407,-43.353,-11.965,,walk
2025-10-28T17:44:49.708766,1801,35,7.010522,-1.539472,7.264307,1.240566,-9.422280,8.124033,5.769956,7.882809,-0.859726,-0.395153,-0.121104,-0.453186,5.820000,-10.020000,-48.779999,23.407,-43.353,-11.965,,walk
2025-10-28T17:44:49.758267,1851,36,7.010522,-1.539472,7.264307,1.240566,-9.422280,8.124033,5.769956,7.882809,-0.859726,-0.395153,-0.121104,-0.453186,-3.600000,-13.559999,-47.459999,34.938,-43.353,-11.965,,walk
2025-10-28T17:44:49.808290,1901,37,4.364630,-0.181959,5.854123,1.240566,-9.422280,8.124033,3.124064,9.240321,-2.269910,-0.395153,-0.121104,-0.453186,-3.600000,-13.559999,-47.459999,30.162,-36.694,-1.780,,walk
2025-10-28T17:44:49.858193,1951,38,4.364630,-0.181959,5.854123,-0.975151,-8.368517,6.652214,5.339780,8.186558,-0.798091,-0.247935,0.834900,-0.075671,-3.600000,-13.559999,-47.459999,30.162,-36.694,-1.780,,walk
2025-10-28T17:44:49.909353,2002,39,4.364630,-0.181959,5.854123,-0.975151,-8.368517,6.652214,5.339780,8.186558,-0.798091,-0.247935,0.834900,-0.075671,-3.600000,-13.559999,-47.459999,30.162,-36.694,-1.780,,walk
2025-10-28T17:44:49.958202,2051,40,4.443638,0.122104,5.430349,-0.975151,-8.368517,6.652214,5.418789,8.490621,-1.221865,-0.247935,0.834900,-0.075671,-2.160000,-14.099999,-45.599998,26.009,-39.286,1.288,,walk
2025-10-28T17:44:50.008661,2101,41,4.443638,0.122104,5.430349,-0.975151,-8.368517,6.652214,5.418789,8.490621,-1.221865,-0.247935,0.834900,-0.075671,-2.160000,-14.099999,-45.599998,26.009,-39.286,1.288,,walk
2025-10-28T17:44:50.058357,2151,42,4.443638,0.122104,5.430349,-1.493762,-6.416033,9.692966,5.937400,6.538137,-4.262618,1.757536,-4.606688,3.467347,-2.160000,-14.099999,-45.599998,26.009,-39.286,1.288,,walk
2025-10-28T17:44:50.108745,2201,43,4.443638,0.122104,5.430349,-1.493762,-6.416033,9.692966,5.937400,6.538137,-4.262618,1.757536,-4.606688,3.467347,-2.160000,-14.099999,-45.599998,26.009,-39.286,1.288,,walk
2025-10-28T17:44:50.158384,2251,44,14.106936,-8.607454,3.964798,-1.493762,-6.416033,9.692966,15.600698,-2.191422,-5.728168,1.757536,-4.606688,3.467347,-23.400000,-6.600000,-26.760000,74.897,-56.108,-65.268,,walk
2025-10-28T17:44:50.208452,2301,45,14.106936,-8.607454,3.964798,-1.493762,-6.416033,9.692966,15.600698,-2.191422,-5.728168,1.757536,-4.606688,3.467347,-23.400000,-6.600000,-26.760000,74.897,-56.108,-65.268,,walk
2025-10-28T17:44:50.258503,2351,46,14.106936,-8.607454,3.964798,5.755961,-12.105518,7.732365,8.350974,3.498064,-3.767567,0.944474,0.192881,1.370858,-23.400000,-6.600000,-26.760000,74.897,-56.108,-65.268,,walk
2025-10-28T17:44:50.308070,2400,47,8.954614,-4.637568,4.323928,5.755961,-12.105518,7.732365,3.198652,7.467950,-3.408436,0.944474,0.192881,1.370858,-23.400000,-6.600000,-26.760000,74.396,-54.698,-47.004,,walk
2025-10-28T17:44:50.358424,2451,48,8.954614,-4.637568,4.323928,5.755961,-12.105518,7.732365,3.198652,7.467950,-3.408436,0.944474,0.192881,1.370858,-12.840000,9.540000,-38.879997,35.891,-54.698,-47.004,,walk
2025-10-28T17:44:50.408344,2501,49,8.954614,-4.637568,4.323928,-0.070737,-6.299970,7.780685,9.025351,1.662401,-3.456757,2.006769,1.187369,0.601168,-12.840000,9.540000,-38.879997,35.891,-54.698,-47.004,,walk
2025-10-28T17:44:50.458320,2551,50,8.954614,-4.637568,4.323928,-0.070737,-6.299970,7.780685,9.025351,1.662401,-3.456757,2.006769,1.187369,0.601168,-12.840000,9.540000,-38.879997,35.891,-54.698,-47.004,,walk
2025-10-28T17:44:50.508625,2601,51,7.338528,-4.429273,4.563348,-0.070737,-6.299970,7.780685,7.409265,1.870697,-3.217337,2.006769,1.187369,0.601168,-12.840000,9.540000,-38.879997,40.077,-49.088,-44.146,,walk
2025-10-28T17:44:50.559119,2652,52,7.338528,-4.429273,4.563348,-0.070737,-6.299970,7.780685,7.409265,1.870697,-3.217337,2.006769,1.187369,0.601168,-9.540000,10.500000,-44.939999,32.981,-49.088,-44.146,,walk
2025-10-28T17:44:50.608339,2701,53,7.338528,-4.429273,4.563348,-1.885669,-5.068109,7.830756,9.224196,0.638835,-3.267408,-1.192943,0.115912,-0.255876,-9.540000,10.500000,-44.939999,32.981,-49.088,-44.146,,walk
2025-10-28T17:44:50.659401,2752,54,7.338528,-4.429273,4.563348,-1.885669,-5.068109,7.830756,9.224196,0.638835,-3.267408,-1.192943,0.115912,-0.255876,-9.540000,10.500000,-44.939999,32.981,-49.088,-44.146,,walk
2025-10-28T17:44:50.708403,2801,55,6.996157,-5.684134,4.067749,-1.885669,-5.068109,7.830756,8.881825,-0.616025,-3.763008,-1.192943,0.115912,-0.255876,-9.540000,10.500000,-44.939999,45.180,-45.026,-54.411,,walk
2025-10-28T17:44:50.758391,2851,56,6.996157,-5.684134,4.067749,-0.642215,-8.944903,9.282377,7.638372,3.260769,-5.214629,0.170508,-0.359341,0.301233,-19.559999,12.660000,-35.759998,64.851,-45.026,-54.411,,walk
2025-10-28T17:44:50.808387,2901,57,6.996157,-5.684134,4.067749,-0.642215,-8.944903,9.282377,7.638372,3.260769,-5.214629,0.170508,-0.359341,0.301233,-19.559999,12.660000,-35.759998,64.851,-45.026,-54.411,,walk
2025-10-28T17:44:50.858255,2951,58,10.091860,-5.789479,2.202666,-0.642215,-8.944903,9.282377,10.734075,3.155425,-7.079712,0.170508,-0.359341,0.301233,-19.559999,12.660000,-35.759998,54.672,-58.459,-69.170,,walk
2025-10-28T17:44:50.908371,3001,59,10.091860,-5.789479,2.202666,-0.642215,-8.944903,9.282377,10.734075,3.155425,-7.079712,0.170508,-0.359341,0.301233,-23.459999,10.559999,-32.219997,63.667,-58.459,-69.170,,walk
2025-10-28T17:44:50.958993,3051,60,10.091860,-5.789479,2.202666,2.963096,-9.275812,7.964270,7.128764,3.486333,-5.761604,3.436193,-1.712408,-1.265636,-23.459999,10.559999,-32.219997,63.667,-58.459,-69.170,,walk
2025-10-28T17:44:51.008836,3101,61,10.091860,-5.789479,2.202666,2.963096,-9.275812,7.964270,7.128764,3.486333,-5.761604,3.436193,-1.712408,-1.265636,-23.459999,10.559999,-32.219997,63.667,-58.459,-69.170,,walk
2025-10-28T17:44:51.058810,3151,62,1.623269,-4.680665,-0.859518,2.963096,-9.275812,7.964270,-1.339827,4.595148,-8.823788,3.436193,-1.712408,-1.265636,-23.459999,10.559999,-32.219997,106.695,-18.834,-100.405,,walk
2025-10-28T17:44:51.108831,3201,63,1.623269,-4.680665,-0.859518,2.963096,-9.275812,7.964270,-1.339827,4.595148,-8.823788,3.436193,-1.712408,-1.265636,-23.459999,10.559999,-32.219997,106.695,-18.834,-100.405,,walk
2025-10-28T17:44:51.158819,3251,64,1.623269,-4.680665,-0.859518,-4.906237,-6.293673,6.277248,6.529505,1.613008,-7.136766,-1.892995,0.949132,0.312229,-27.240000,7.920000,-28.080000,114.775,-18.834,-100.405,,walk
2025-10-28T17:44:51.208447,3301,65,9.229947,-7.453449,1.594538,-4.906237,-6.293673,6.277248,14.136184,-1.159776,-4.682710,-1.892995,0.949132,0.312229,-27.240000,7.920000,-28.080000,83.246,-50.450,-77.925,,walk
2025-10-28T17:44:51.258425,3351,66,9.229947,-7.453449,1.594538,-4.906237,-6.293673,6.277248,14.136184,-1.159776,-4.682710,-1.892995,0.949132,0.312229,-27.240000,7.920000,-28.080000,83.246,-50.450,-77.925,,walk
2025-10-28T17:44:51.308126,3401,67,9.229947,-7.453449,1.594538,4.390040,-9.435539,9.890084,4.839907,1.982090,-8.295546,1.479592,-2.683684,0.402637,-30.240000,6.000000,-20.459999,95.794,-50.450,-77.925,,walk
2025-10-28T17:44:51.358917,3451,68,9.229947,-7.453449,1.594538,4.390040,-9.435539,9.890084,4.839907,1.982090,-8.295546,1.479592,-2.683684,0.402637,-30.240000,6.000000,-20.459999,95.794,-50.450,-77.925,,walk
2025-10-28T17:44:51.408253,3501,69,5.815815,-7.103896,2.286463,4.390040,-9.435539,9.890084,1.425775,2.331644,-7.603622,1.479592,-2.683684,0.402637,-30.240000,6.000000,-20.459999,109.859,-37.930,-72.159,,walk
2025-10-28T17:44:51.458579,3551,70,5.815815,-7.103896,2.286463,4.390040,-9.435539,9.890084,1.425775,2.331644,-7.603622,1.479592,-2.683684,0.402637,-30.240000,6.000000,-20.459999,109.859,-37.930,-72.159,,walk
2025-10-28T17:44:51.508128,3601,71,5.815815,-7.103896,2.286463,0.644198,-5.637673,10.488557,5.171617,-1.466223,-8.202094,1.814957,1.985770,3.112435,-30.240000,6.000000,-20.459999,109.859,-37.930,-72.159,,walk
2025-10-28T17:44:51.558903,3651,72,5.815815,-7.103896,2.286463,0.644198,-5.637673,10.488557,5.171617,-1.466223,-8.202094,1.814957,1.985770,3.112435,-27.719999,12.300000,-29.879999,95.725,-37.930,-72.159,,walk
2025-10-28T17:44:51.608768,3701,73,9.629779,-8.095096,1.541866,0.644198,-5.637673,10.488557,8.985580,-2.457423,-8.946691,1.814957,1.985770,3.112435,-27.719999,12.300000,-29.879999,82.882,-49.445,-79.216,,walk
2025-10-28T17:44:51.659002,3751,74,9.629779,-8.095096,1.541866,0.644198,-5.637673,10.488557,8.985580,-2.457423,-8.946691,1.814957,1.985770,3.112435,-27.719999,12.300000,-29.879999,82.882,-49.445,-79.216,,walk
2025-10-28T17:44:51.708473,3801,75,9.629779,-8.095096,1.541866,3.677018,-3.572582,7.888603,5.952761,-4.522513,-6.346737,-0.245491,-1.032515,0.261527,-27.719999,12.300000,-29.879999,82.882,-49.445,-79.216,,walk
2025-10-28T17:44:51.758362,3851,76,5.351340,-14.688726,5.585972,3.677018,-3.572582,7.888603,1.674322,-11.116144,-2.302631,-0.245491,-1.032515,0.261527,-22.680000,15.360000,-37.500000,105.190,-18.805,-69.179,,walk
2025-10-28T17:44:51.809052,3901,77,5.351340,-14.688726,5.585972,3.677018,-3.572582,7.888603,1.674322,-11.116144,-2.302631,-0.245491,-1.032515,0.261527,-22.680000,15.360000,-37.500000,105.190,-18.805,-69.179,,walk
2025-10-28T17:44:51.858753,3951,78,5.351340,-14.688726,5.585972,3.119920,-8.374605,12.749924,2.231420,-6.314121,-7.163952,1.916361,-0.124769,-1.806252,-22.680000,15.360000,-37.500000,105.190,-18.805,-69.179,,walk
2025-10-28T17:44:51.908400,4001,79,5.351340,-14.688726,5.585972,3.119920,-8.374605,12.749924,2.231420,-6.314121,-7.163952,1.916361,-0.124769,-1.806252,-22.680000,15.360000,-37.500000,105.190,-18.805,-69.179,,walk
2025-10-28T17:44:51.958791,4051,80,4.390966,-2.885013,1.185130,3.119920,-8.374605,12.749924,1.271046,5.489592,-11.564794,1.916361,-0.124769,-1.806252,-37.500000,-0.420000,-29.580000,86.898,-54.613,-67.668,,walk
2025-10-28T17:44:52.009037,4101,81,4.390966,-2.885013,1.185130,3.119920,-8.374605,12.749924,1.271046,5.489592,-11.564794,1.916361,-0.124769,-1.806252,-37.500000,-0.420000,-29.580000,86.898,-54.613,-67.668,,walk
2025-10-28T17:44:52.058701,4151,82,4.390966,-2.885013,1.185130,0.509304,2.377930,8.492930,3.881662,-5.262943,-7.307801,-0.565585,-2.050827,-3.696269,-37.500000,-0.420000,-29.580000,86.898,-54.613,-67.668,,walk
2025-10-28T17:44:52.108274,4201,83,2.466028,-4.699818,2.446874,0.509304,2.377930,8.492930,1.956724,-7.077748,-6.046056,-0.565585,-2.050827,-3.696269,-37.500000,-0.420000,-29.580000,119.510,-24.958,-62.497,,walk
2025-10-28T17:44:52.158348,4251,84,2.466028,-4.699818,2.446874,0.509304,2.377930,8.492930,1.956724,-7.077748,-6.046056,-0.565585,-2.050827,-3.696269,-27.900000,-31.139999,-28.559999,105.490,-24.958,-62.497,,walk
2025-10-28T17:44:52.208645,4301,85,2.466028,-4.699818,2.446874,-2.060353,-1.982649,10.711189,4.526381,-2.717170,-8.264315,-0.676762,-1.083828,1.375134,-27.900000,-31.139999,-28.559999,105.490,-24.958,-62.497,,walk
2025-10-28T17:44:52.258344,4351,86,2.466028,-4.699818,2.446874,-2.060353,-1.982649,10.711189,4.526381,-2.717170,-8.264315,-0.676762,-1.083828,1.375134,-27.900000,-31.139999,-28.559999,105.490,-24.958,-62.497,,walk
2025-10-28T17:44:52.309023,4401,87,11.430218,-0.876278,3.976769,-2.060353,-1.982649,10.711189,13.490571,1.106371,-6.734420,-0.676762,-1.083828,1.375134,-27.900000,-31.139999,-28.559999,65.296,-70.391,-12.427,,walk
2025-10-28T17:44:52.358210,4451,88,11.430218,-0.876278,3.976769,-2.060353,-1.982649,10.711189,13.490571,1.106371,-6.734420,-0.676762,-1.083828,1.375134,-37.559998,-30.599998,-26.939999,72.057,-70.391,-12.427,,walk
2025-10-28T17:44:52.408734,4501,89,11.430218,-0.876278,3.976769,8.647624,2.461886,12.767878,2.782594,-3.338164,-8.791109,-0.228998,2.639396,1.210811,-37.559998,-30.599998,-26.939999,72.057,-70.391,-12.427,,walk
2025-10-28T17:44:52.459095,4551,90,11.430218,-0.876278,3.976769,8.647624,2.461886,12.767878,2.782594,-3.338164,-8.791109,-0.228998,2.639396,1.210811,-37.559998,-30.599998,-26.939999,72.057,-70.391,-12.427,,walk
2025-10-28T17:44:52.507935,4600,91,10.580276,-1.984793,1.168370,8.647624,2.461886,12.767878,1.932652,-4.446679,-11.599507,-0.228998,2.639396,1.210811,-33.899998,-21.059999,-35.099998,59.325,-77.719,-59.516,,walk
2025-10-28T17:44:52.558198,4651,92,10.580276,-1.984793,1.168370,3.207540,-0.209072,7.386045,7.372736,-1.775722,-6.217674,-2.899090,4.470159,-2.511801,-33.899998,-21.059999,-35.099998,59.325,-77.719,-59.516,,walk
2025-10-28T17:44:52.608089,4700,93,10.580276,-1.984793,1.168370,3.207540,-0.209072,7.386045,7.372736,-1.775722,-6.217674,-2.899090,4.470159,-2.511801,-33.899998,-21.059999,-35.099998,59.325,-77.719,-59.516,,walk
2025-10-28T17:44:52.657979,4750,94,3.801992,-2.300828,4.790798,3.207540,-0.209072,7.386045,0.594452,-2.091756,-2.595247,-2.899090,4.470159,-2.511801,-33.899998,-21.059999,-35.099998,100.163,-35.579,-25.653,,walk
2025-10-28T17:44:52.708236,4801,95,3.801992,-2.300828,4.790798,3.207540,-0.209072,7.386045,0.594452,-2.091756,-2.595247,-2.899090,4.470159,-2.511801,-33.899998,-21.059999,-35.099998,100.163,-35.579,-25.653,,walk
2025-10-28T17:44:52.758045,4850,96,3.801992,-2.300828,4.790798,-5.239813,-3.723854,8.310848,9.041805,1.423026,-3.520051,0.106978,0.093310,-0.847805,-25.920000,-11.580000,-43.559998,82.482,-35.579,-25.653,,walk
2025-10-28T17:44:52.808552,4901,97,3.801992,-2.300828,4.790798,-5.239813,-3.723854,8.310848,9.041805,1.423026,-3.520051,0.106978,0.093310,-0.847805,-25.920000,-11.580000,-43.559998,82.482,-35.579,-25.653,,walk
2025-10-28T17:44:52.858707,4951,98,9.957784,-2.710236,8.935460,-5.239813,-3.723854,8.310848,15.197597,1.013618,0.624612,0.106978,0.093310,-0.847805,-25.920000,-11.580000,-43.559998,60.884,-46.841,-16.873,,walk
2025-10-28T17:44:52.908377,5001,99,9.957784,-2.710236,8.935460,-5.239813,-3.723854,8.310848,15.197597,1.013618,0.624612,0.106978,0.093310,-0.847805,-25.920000,-11.580000,-43.559998,60.884,-46.841,-16.873,,walk
2025-10-28T17:44:52.958674,5051,100,9.957784,-2.710236,8.935460,1.559602,-6.018236,12.769214,8.398182,3.307999,-3.833754,0.664698,-0.018479,-0.917443,-24.719999,-18.359999,-37.980000,70.415,-46.841,-16.873,,walk
2025-10-28T17:44:53.008785,5101,101,7.666533,-2.183512,5.755960,1.559602,-6.018236,12.769214,6.106931,3.834724,-7.013254,0.664698,-0.018479,-0.917443,-24.719999,-18.359999,-37.980000,66.452,-51.236,-20.774,,walk
2025-10-28T17:44:53.058334,5151,102,7.666533,-2.183512,5.755960,1.559602,-6.018236,12.769214,6.106931,3.834724,-7.013254,0.664698,-0.018479,-0.917443,-24.719999,-18.359999,-37.980000,66.452,-51.236,-20.774,,walk
2025-10-28T17:44:53.108155,5201,103,7.666533,-2.183512,5.755960,-0.855779,-6.514585,7.942710,8.522312,4.331074,-2.186750,-0.550313,1.230741,-1.099481,-9.000000,-11.520000,-48.840000,36.610,-51.236,-20.774,,walk
2025-10-28T17:44:53.158185,5251,104,7.666533,-2.183512,5.755960,-0.855779,-6.514585,7.942710,8.522312,4.331074,-2.186750,-0.550313,1.230741,-1.099481,-9.000000,-11.520000,-48.840000,36.610,-51.236,-20.774,,walk
2025-10-28T17:44:53.208333,5301,105,6.067206,-1.276109,5.265149,-0.855779,-6.514585,7.942710,6.922986,5.238476,-2.677561,-0.550313,1.230741,-1.099481,-9.000000,-11.520000,-48.840000,33.884,-48.237,-13.624,,walk
2025-10-28T17:44:53.260677,5353,106,6.067206,-1.276109,5.265149,-0.855779,-6.514585,7.942710,6.922986,5.238476,-2.677561,-0.550313,1.230741,-1.099481,-9.000000,-11.520000,-48.840000,33.884,-48.237,-13.624,,walk
2025-10-28T17:44:53.308197,5401,107,6.067206,-1.276109,5.265149,-2.072854,-6.738332,4.993561,8.140060,5.462222,0.271588,-0.863076,0.852004,0.352546,-9.000000,-11.520000,-48.840000,33.884,-48.237,-13.624,,walk
2025-10-28T17:44:53.359313,5452,108,6.067206,-1.276109,5.265149,-2.072854,-6.738332,4.993561,8.140060,5.462222,0.271588,-0.863076,0.852004,0.352546,2.700000,-4.200000,-49.500000,16.369,-48.237,-13.624,,walk
2025-10-28T17:44:53.408483,5501,109,4.431667,-0.912191,9.936236,-2.072854,-6.738332,4.993561,6.504521,5.826141,4.942676,-0.863076,0.852004,0.352546,2.700000,-4.200000,-49.500000,20.015,-23.948,-5.245,,walk
2025-10-28T17:44:53.458414,5551,110,4.431667,-0.912191,9.936236,-2.072854,-6.738332,4.993561,6.504521,5.826141,4.942676,-0.863076,0.852004,0.352546,2.700000,-4.200000,-49.500000,20.015,-23.948,-5.245,,walk
2025-10-28T17:44:53.508229,5601,111,4.431667,-0.912191,9.936236,-3.862772,-5.956512,8.548057,8.294439,5.044321,1.388180,-0.271759,-1.618946,0.772821,2.700000,-4.200000,-49.500000,20.015,-23.948,-5.245,,walk
2025-10-28T17:44:53.558274,5651,112,3.967192,-4.012682,7.692869,-3.862772,-5.956512,8.548057,7.829964,1.943830,-0.855187,-0.271759,-1.618946,0.772821,6.240000,-5.640000,-48.599998,43.123,-24.571,-27.547,,walk
2025-10-28T17:44:53.608172,5701,113,3.967192,-4.012682,7.692869,-3.862772,-5.956512,8.548057,7.829964,1.943830,-0.855187,-0.271759,-1.618946,0.772821,6.240000,-5.640000,-48.599998,43.123,-24.571,-27.547,,walk
2025-10-28T17:44:53.658223,5751,114,3.967192,-4.012682,7.692869,-5.020042,-7.932320,7.882930,8.987234,3.919638,-0.190061,-0.053069,0.764040,-0.942489,6.240000,-5.640000,-48.599998,43.123,-24.571,-27.547,,walk
2025-10-28T17:44:53.709104,5801,115,3.967192,-4.012682,7.692869,-5.020042,-7.932320,7.882930,8.987234,3.919638,-0.190061,-0.053069,0.764040,-0.942489,6.240000,-5.640000,-48.599998,43.123,-24.571,-27.547,,walk
2025-10-28T17:44:53.758227,5851,116,2.566584,-0.773327,7.592313,-5.020042,-7.932320,7.882930,7.586626,7.158992,-0.290617,-0.053069,0.764040,-0.942489,4.680000,-9.240000,-46.980000,34.924,-18.588,-5.816,,walk
2025-10-28T17:44:53.808325,5901,117,2.566584,-0.773327,7.592313,-5.020042,-7.932320,7.882930,7.586626,7.158992,-0.290617,-0.053069,0.764040,-0.942489,4.680000,-9.240000,-46.980000,34.924,-18.588,-5.816,,walk
2025-10-28T17:44:53.858307,5951,118,2.566584,-0.773327,7.592313,-5.835969,-5.828221,7.469340,8.402554,5.054894,0.122973,-1.378646,1.723709,-1.500209,4.680000,-9.240000,-46.980000,34.924,-18.588,-5.816,,walk
2025-10-28T17:44:53.908093,6000,119,5.291485,-0.691924,7.501333,-5.835969,-5.828221,7.469340,11.127454,5.136297,0.031993,-1.378646,1.723709,-1.500209,4.500000,-3.180000,-47.459999,11.849,-35.085,-5.270,,walk
2025-10-28T17:44:53.958230,6051,120,5.291485,-0.691924,7.501333,-5.835969,-5.828221,7.469340,11.127454,5.136297,0.031993,-1.378646,1.723709,-1.500209,4.500000,-3.180000,-47.459999,11.849,-35.085,-5.270,,walk
2025-10-28T17:44:54.008197,6101,121,5.291485,-0.691924,7.501333,-1.840639,-7.130083,5.538412,7.132123,6.438159,1.962921,-1.078101,0.759153,-1.349325,4.500000,-3.180000,-47.459999,11.849,-35.085,-5.270,,walk
2025-10-28T17:44:54.058245,6151,122,5.291485,-0.691924,7.501333,-1.840639,-7.130083,5.538412,7.132123,6.438159,1.962921,-1.078101,0.759153,-1.349325,4.500000,-3.180000,-47.459999,11.849,-35.085,-5.270,,walk
2025-10-28T17:44:54.108142,6201,123,3.605668,-4.232949,9.859622,-1.840639,-7.130083,5.538412,5.446306,2.897134,4.321210,-1.078101,0.759153,-1.349325,4.500000,-3.180000,-47.459999,46.046,-18.574,-23.235,,walk
2025-10-28T17:44:54.158243,6251,124,3.605668,-4.232949,9.859622,-1.840639,-7.130083,5.538412,5.446306,2.897134,4.321210,-1.078101,0.759153,-1.349325,5.580000,7.440000,-45.480000,25.587,-18.574,-23.235,,walk
2025-10-28T17:44:54.208344,6301,125,3.605668,-4.232949,9.859622,-2.722020,-10.884609,6.412002,6.327688,6.651660,3.447620,-1.191111,0.507476,-0.141034,5.580000,7.440000,-45.480000,25.587,-18.574,-23.235,,walk
2025-10-28T17:44:54.260416,6353,126,3.605668,-4.232949,9.859622,-2.722020,-10.884609,6.412002,6.327688,6.651660,3.447620,-1.191111,0.507476,-0.141034,5.580000,7.440000,-45.480000,25.587,-18.574,-23.235,,walk
2025-10-28T17:44:54.309335,6402,127,3.033453,-2.396596,8.363246,-2.722020,-10.884609,6.412002,5.755474,8.488013,1.951244,-1.191111,0.507476,-0.141034,5.580000,7.440000,-45.480000,11.645,-19.223,-15.990,,walk
2025-10-28T17:44:54.358663,6451,128,3.033453,-2.396596,8.363246,-2.902715,-8.693417,3.749988,5.936168,6.296821,4.613258,-0.231442,-0.045357,0.105145,7.020000,14.040000,-41.099998,-9.691,-19.223,-15.990,,walk
2025-10-28T17:44:54.408347,6501,129,3.033453,-2.396596,8.363246,-2.902715,-8.693417,3.749988,5.936168,6.296821,4.613258,-0.231442,-0.045357,0.105145,7.020000,14.040000,-41.099998,-9.691,-19.223,-15.990,,walk
2025-10-28T17:44:54.458234,6551,130,4.175488,-2.336741,7.984962,-2.902715,-8.693417,3.749988,7.078203,6.356676,4.234974,-0.231442,-0.045357,0.105145,7.020000,14.040000,-41.099998,-9.291,-26.651,-16.312,,walk
2025-10-28T17:44:54.508736,6601,131,4.175488,-2.336741,7.984962,-2.902715,-8.693417,3.749988,7.078203,6.356676,4.234974,-0.231442,-0.045357,0.105145,4.020000,16.199999,-41.700001,-14.066,-26.651,-16.312,,walk
2025-10-28T17:44:54.558397,6651,132,4.175488,-2.336741,7.984962,-2.304575,-8.003878,3.287888,6.480063,5.667137,4.697074,-0.420199,0.008399,0.144241,4.020000,16.199999,-41.700001,-14.066,-26.651,-16.312,,walk
2025-10-28T17:44:54.608505,6701,133,4.175488,-2.336741,7.984962,-2.304575,-8.003878,3.287888,6.480063,5.667137,4.697074,-0.420199,0.008399,0.144241,4.020000,16.199999,-41.700001,-14.066,-26.651,-16.312,,walk
2025-10-28T17:44:54.658503,6751,134,3.505111,-6.917148,10.101437,-2.304575,-8.003878,3.287888,5.809687,1.086730,6.813549,-0.420199,0.008399,0.144241,4.020000,16.199999,-41.700001,29.439,-15.976,-34.402,,walk
2025-10-28T17:44:54.708488,6801,135,3.505111,-6.917148,10.101437,-2.304575,-8.003878,3.287888,5.809687,1.086730,6.813549,-0.420199,0.008399,0.144241,4.020000,16.199999,-41.700001,29.439,-15.976,-34.402,,walk
2025-10-28T17:44:54.758814,6851,136,3.505111,-6.917148,10.101437,-3.921729,-11.931620,6.118066,7.426840,5.014472,3.983371,0.023289,-0.591470,0.378202,-3.180000,17.219999,-45.180000,49.101,-15.976,-34.402,,walk
2025-10-28T17:44:54.808238,6901,137,3.912126,-5.992986,5.650615,-3.921729,-11.931620,6.118066,7.833854,5.938633,-0.467451,0.023289,-0.591470,0.378202,-3.180000,17.219999,-45.180000,48.819,-25.406,-46.684,,walk
2025-10-28T17:44:54.858467,6951,138,3.912126,-5.992986,5.650615,-3.921729,-11.931620,6.118066,7.833854,5.938633,-0.467451,0.023289,-0.591470,0.378202,-3.180000,17.219999,-45.180000,48.819,-25.406,-46.684,,walk
2025-10-28T17:44:54.908376,7001,139,3.912126,-5.992986,5.650615,-3.960695,-10.274679,1.668653,7.872820,4.281693,3.981962,-0.271148,-0.253662,-0.094608,-3.180000,17.219999,-45.180000,48.819,-25.406,-46.684,,walk
2025-10-28T17:44:54.959312,7052,140,3.912126,-5.992986,5.650615,-3.960695,-10.274679,1.668653,7.872820,4.281693,3.981962,-0.271148,-0.253662,-0.094608,-14.280000,19.439999,-37.020000,79.072,-25.406,-46.684,,walk
2025-10-28T17:44:55.009371,7102,141,4.548983,-5.542876,5.339369,-3.960695,-10.274679,1.668653,8.509678,4.731803,3.670716,-0.271148,-0.253662,-0.094608,-14.280000,19.439999,-37.020000,66.002,-30.586,-46.071,,walk
2025-10-28T17:44:55.058222,7151,142,4.548983,-5.542876,5.339369,-3.960695,-10.274679,1.668653,8.509678,4.731803,3.670716,-0.271148,-0.253662,-0.094608,-14.280000,19.439999,-37.020000,66.002,-30.586,-46.071,,walk
2025-10-28T17:44:55.108410,7201,143,4.548983,-5.542876,5.339369,-3.177687,-10.233730,1.536119,7.726670,4.690854,3.803251,-1.495322,-0.134543,-1.605888,-19.920000,18.719999,-26.459999,108.973,-30.586,-46.071,,walk
2025-10-28T17:44:55.158892,7251,144,4.548983,-5.542876,5.339369,-3.177687,-10.233730,1.536119,7.726670,4.690854,3.803251,-1.495322,-0.134543,-1.605888,-19.920000,18.719999,-26.459999,108.973,-30.586,-46.071,,walk
2025-10-28T17:44:55.208364,7301,145,6.172551,-9.419088,6.332963,-3.177687,-10.233730,1.536119,9.350238,0.814642,4.796844,-1.495322,-0.134543,-1.605888,-19.920000,18.719999,-26.459999,106.181,-28.539,-56.085,,walk
2025-10-28T17:44:55.258880,7351,146,6.172551,-9.419088,6.332963,-3.177687,-10.233730,1.536119,9.350238,0.814642,4.796844,-1.495322,-0.134543,-1.605888,-19.920000,18.719999,-26.459999,106.181,-28.539,-56.085,,walk
2025-10-28T17:44:55.308676,7401,147,6.172551,-9.419088,6.332963,-1.110746,-15.275839,3.362743,7.283297,5.856750,2.970220,0.118584,-1.715462,-1.814193,-19.920000,18.719999,-26.459999,106.181,-28.539,-56.085,,walk
2025-10-28T17:44:55.358485,7451,148,7.577948,-6.407183,1.580173,-1.110746,-15.275839,3.362743,8.688694,8.868656,-1.782570,0.118584,-1.715462,-1.814193,-34.500000,17.520000,-18.959999,104.150,-48.949,-76.146,,walk
2025-10-28T17:44:55.408251,7501,149,7.577948,-6.407183,1.580173,-1.110746,-15.275839,3.362743,8.688694,8.868656,-1.782570,0.118584,-1.715462,-1.814193,-34.500000,17.520000,-18.959999,104.150,-48.949,-76.146,,walk
2025-10-28T17:44:55.458234,7551,150,7.577948,-6.407183,1.580173,0.545023,-13.240358,1.706056,7.032924,6.833175,-0.125883,1.563280,-2.333658,2.075186,-34.500000,17.520000,-18.959999,104.150,-48.949,-76.146,,walk
2025-10-28T17:44:55.509051,7601,151,7.577948,-6.407183,1.580173,0.545023,-13.240358,1.706056,7.032924,6.833175,-0.125883,1.563280,-2.333658,2.075186,-34.500000,17.520000,-18.959999,104.150,-48.949,-76.146,,walk
2025-10-28T17:44:55.558301,7651,152,8.533235,-9.100660,3.945644,0.545023,-13.240358,1.706056,7.988211,4.139698,2.239588,1.563280,-2.333658,2.075186,-28.680000,23.879999,-25.619999,101.174,-40.705,-66.561,,walk
2025-10-28T17:44:55.608444,7701,153,8.533235,-9.100660,3.945644,0.545023,-13.240358,1.706056,7.988211,4.139698,2.239588,1.563280,-2.333658,2.075186,-28.680000,23.879999,-25.619999,101.174,-40.705,-66.561,,walk
2025-10-28T17:44:55.659504,7752,154,8.533235,-9.100660,3.945644,-0.379729,-11.276135,7.409232,8.912964,2.175475,-3.463588,1.637195,2.522721,-1.924760,-28.680000,23.879999,-25.619999,101.174,-40.705,-66.561,,walk
2025-10-28T17:44:55.708622,7801,155,5.289091,-5.083189,-2.980781,-0.379729,-11.276135,7.409232,5.668820,6.192946,-10.390013,1.637195,2.522721,-1.924760,-28.680000,23.879999,-25.619999,95.364,-41.910,-120.387,,walk
2025-10-28T17:44:55.758843,7851,156,5.289091,-5.083189,-2.980781,-0.379729,-11.276135,7.409232,5.668820,6.192946,-10.390013,1.637195,2.522721,-1.924760,-21.240000,-1.320000,-33.660000,78.622,-41.910,-120.387,,walk
2025-10-28T17:44:55.809210,7902,157,5.289091,-5.083189,-2.980781,-1.235862,-12.177179,-1.172345,6.524953,7.093990,-1.808436,-1.503263,-0.226784,-2.628477,-21.240000,-1.320000,-33.660000,78.622,-41.910,-120.387,,walk
2025-10-28T17:44:55.858830,7951,158,5.289091,-5.083189,-2.980781,-1.235862,-12.177179,-1.172345,6.524953,7.093990,-1.808436,-1.503263,-0.226784,-2.628477,-21.240000,-1.320000,-33.660000,78.622,-41.910,-120.387,,walk
2025-10-28T17:44:55.908691,8001,159,6.000169,-2.681506,-0.914585,-1.235862,-12.177179,-1.172345,7.236031,9.495673,0.257760,-1.503263,-0.226784,-2.628477,-21.240000,-1.320000,-33.660000,55.725,-64.724,-108.833,,walk
2025-10-28T17:44:55.958832,8051,160,6.000169,-2.681506,-0.914585,-1.235862,-12.177179,-1.172345,7.236031,9.495673,0.257760,-1.503263,-0.226784,-2.628477,-18.420000,-9.360000,-45.059998,43.270,-64.724,-108.833,,walk
2025-10-28T17:44:56.008370,8101,161,6.000169,-2.681506,-0.914585,-0.698682,-9.628806,-2.655398,6.698851,6.947300,1.740813,-1.784872,0.216094,6.896134,-18.420000,-9.360000,-45.059998,43.270,-64.724,-108.833,,walk
2025-10-28T17:44:56.058620,8151,162,6.000169,-2.681506,-0.914585,-0.698682,-9.628806,-2.655398,6.698851,6.947300,1.740813,-1.784872,0.216094,6.896134,-18.420000,-9.360000,-45.059998,43.270,-64.724,-108.833,,walk
2025-10-28T17:44:56.108987,8201,163,16.405668,-4.472369,1.833959,-0.698682,-9.628806,-2.655398,17.104351,5.156437,4.489356,-1.784872,0.216094,6.896134,-18.420000,-9.360000,-45.059998,39.807,-73.583,-67.703,,walk
2025-10-28T17:44:56.158231,8251,164,16.405668,-4.472369,1.833959,9.587187,-11.506350,1.385129,6.818481,7.033981,0.448830,-0.193568,0.781144,-4.157473,-58.259998,133.739990,-197.519989,16.916,-73.583,-67.703,,walk
2025-10-28T17:44:56.209654,8302,165,16.405668,-4.472369,1.833959,9.587187,-11.506350,1.385129,6.818481,7.033981,0.448830,-0.193568,0.781144,-4.157473,-58.259998,133.739990,-197.519989,16.916,-73.583,-67.703,,walk
2025-10-28T17:44:56.259077,8351,166,5.930737,-1.632846,-0.069432,9.587187,-11.506350,1.385129,-3.656450,9.873504,-1.454561,-0.193568,0.781144,-4.157473,-58.259998,133.739990,-197.519989,33.141,-74.593,-92.435,,walk
2025-10-28T17:44:56.309855,8402,167,5.930737,-1.632846,-0.069432,9.587187,-11.506350,1.385129,-3.656450,9.873504,-1.454561,-0.193568,0.781144,-4.157473,-58.259998,133.739990,-197.519989,33.141,-74.593,-92.435,,walk
2025-10-28T17:44:56.359019,8451,168,5.930737,-1.632846,-0.069432,2.044565,-10.538017,-1.398261,3.886172,8.905172,1.328829,0.833297,-1.049008,-1.676749,415.440002,-158.160004,-201.479996,-49.240,-74.593,-92.435,,walk
2025-10-28T17:44:56.409303,8502,169,5.930737,-1.632846,-0.069432,2.044565,-10.538017,-1.398261,3.886172,8.905172,1.328829,0.833297,-1.049008,-1.676749,415.440002,-158.160004,-201.479996,-49.240,-74.593,-92.435,,walk
2025-10-28T17:44:56.458787,8551,170,9.024046,-0.727837,-0.335188,2.044565,-10.538017,-1.398261,6.979481,9.810180,1.063073,0.833297,-1.049008,-1.676749,415.440002,-158.160004,-201.479996,-60.857,-84.926,-114.727,,walk
2025-10-28T17:44:56.508462,8601,171,9.024046,-0.727837,-0.335188,2.044565,-10.538017,-1.398261,6.979481,9.810180,1.063073,0.833297,-1.049008,-1.676749,415.440002,-158.160004,-201.479996,-60.857,-84.926,-114.727,,walk
2025-10-28T17:44:56.558953,8651,172,9.024046,-0.727837,-0.335188,8.323024,-10.474310,-1.162729,0.701022,9.746473,0.827541,0.293903,0.905150,-1.010295,-5.280000,69.720001,44.520000,145.879,-84.926,-114.727,,walk
2025-10-28T17:44:56.609319,8702,173,9.024046,-0.727837,-0.335188,8.323024,-10.474310,-1.162729,0.701022,9.746473,0.827541,0.293903,0.905150,-1.010295,-5.280000,69.720001,44.520000,145.879,-84.926,-114.727,,walk
2025-10-28T17:44:56.659093,8751,174,8.645761,4.819528,1.692701,8.323024,-10.474310,-1.162729,0.322738,15.293838,2.855430,0.293903,0.905150,-1.010295,-5.280000,69.720001,44.520000,-171.642,-59.424,70.648,,walk
2025-10-28T17:44:56.708474,8801,175,8.645761,4.819528,1.692701,10.083741,-4.756277,0.141497,-1.437980,9.575805,1.551203,-0.342008,-0.850477,-0.612621,-5.280000,69.720001,44.520000,-171.642,-59.424,70.648,,walk
2025-10-28T17:44:56.758722,8851,176,8.645761,4.819528,1.692701,10.083741,-4.756277,0.141497,-1.437980,9.575805,1.551203,-0.342008,-0.850477,-0.612621,-73.979996,27.779999,-4.740000,-115.115,-59.424,70.648,,walk
2025-10-28T17:44:56.809084,8901,177,5.899612,4.733337,3.454833,10.083741,-4.756277,0.141497,-4.184129,9.489614,3.313336,-0.342008,-0.850477,-0.612621,-73.979996,27.779999,-4.740000,-128.429,-45.193,53.875,,walk
2025-10-28T17:44:56.858692,8951,178,5.899612,4.733337,3.454833,10.083741,-4.756277,0.141497,-4.184129,9.489614,3.313336,-0.342008,-0.850477,-0.612621,-73.979996,27.779999,-4.740000,-128.429,-45.193,53.875,,walk
2025-10-28T17:44:56.908408,9001,179,5.899612,4.733337,3.454833,7.001363,-4.747636,1.203738,-1.101750,9.480973,2.251095,1.023276,-0.202960,-0.407371,-73.979996,27.779999,-4.740000,-128.429,-45.193,53.875,,walk
2025-10-28T17:44:56.961347,9054,180,5.899612,4.733337,3.454833,7.001363,-4.747636,1.203738,-1.101750,9.480973,2.251095,1.023276,-0.202960,-0.407371,-264.839996,120.959999,-82.739998,-115.339,-45.193,53.875,,walk
2025-10-28T17:44:57.008743,9101,181,7.123049,8.231565,-0.754174,7.001363,-4.747636,1.203738,0.121686,12.979201,-1.957912,1.023276,-0.202960,-0.407371,-264.839996,120.959999,-82.739998,-123.259,-40.752,95.235,,walk
2025-10-28T17:44:57.059753,9152,182,7.123049,8.231565,-0.754174,7.001363,-4.747636,1.203738,0.121686,12.979201,-1.957912,1.023276,-0.202960,-0.407371,-264.839996,120.959999,-82.739998,-123.259,-40.752,95.235,,walk
2025-10-28T17:44:57.108479,9201,183,7.123049,8.231565,-0.754174,8.862989,-1.379878,-1.627551,-1.739940,9.611443,0.873377,0.533362,0.390190,-0.227166,-264.839996,120.959999,-82.739998,-123.259,-40.752,95.235,,walk
2025-10-28T17:44:57.159083,9251,184,7.271490,6.826169,0.462081,8.862989,-1.379878,-1.627551,-1.591500,8.206047,2.089632,0.533362,0.390190,-0.227166,-211.379990,-121.799995,-179.220001,-93.061,-46.744,86.127,,walk
2025-10-28T17:44:57.208784,9301,185,7.271490,6.826169,0.462081,8.862989,-1.379878,-1.627551,-1.591500,8.206047,2.089632,0.533362,0.390190,-0.227166,-211.379990,-121.799995,-179.220001,-93.061,-46.744,86.127,,walk
2025-10-28T17:44:57.258431,9351,186,7.271490,6.826169,0.462081,9.252345,-2.773055,0.144292,-1.980855,9.599223,0.317789,0.219988,-0.195019,-0.051236,-211.379990,-121.799995,-179.220001,-93.061,-46.744,86.127,,walk
2025-10-28T17:44:57.308457,9401,187,7.271490,6.826169,0.462081,9.252345,-2.773055,0.144292,-1.980855,9.599223,0.317789,0.219988,-0.195019,-0.051236,-211.379990,-121.799995,-179.220001,-93.061,-46.744,86.127,,walk
2025-10-28T17:44:57.358440,9451,188,7.879617,5.734412,1.060631,9.252345,-2.773055,0.144292,-1.372728,8.507467,0.916340,0.219988,-0.195019,-0.051236,-214.860001,-113.459999,-182.639999,-85.758,-53.495,79.521,,walk
2025-10-28T17:44:57.408459,9501,189,7.879617,5.734412,1.060631,9.252345,-2.773055,0.144292,-1.372728,8.507467,0.916340,0.219988,-0.195019,-0.051236,-214.860001,-113.459999,-182.639999,-85.758,-53.495,79.521,,walk
2025-10-28T17:44:57.458764,9551,190,7.879617,5.734412,1.060631,9.832438,-3.864590,0.596316,-1.952820,9.599002,0.464315,-0.120264,-0.081398,-0.020082,-214.860001,-113.459999,-182.639999,-85.758,-53.495,79.521,,walk
2025-10-28T17:44:57.508226,9601,191,7.252336,6.711246,0.703895,9.832438,-3.864590,0.596316,-2.580101,10.575836,0.107579,-0.120264,-0.081398,-0.020082,-214.860001,-113.459999,-182.639999,-92.699,-47.063,84.013,,walk
2025-10-28T17:44:57.558400,9651,192,7.252336,6.711246,0.703895,9.832438,-3.864590,0.596316,-2.580101,10.575836,0.107579,-0.120264,-0.081398,-0.020082,-218.099991,-109.619995,-180.839996,-93.430,-47.063,84.013,,walk
2025-10-28T17:44:57.608317,9701,193,7.252336,6.711246,0.703895,9.003239,-2.924376,0.194935,-1.750903,9.635623,0.508960,0.090484,0.303447,0.015348,-218.099991,-109.619995,-180.839996,-93.430,-47.063,84.013,,walk
2025-10-28T17:44:57.658914,9751,194,7.252336,6.711246,0.703895,9.003239,-2.924376,0.194935,-1.750903,9.635623,0.508960,0.090484,0.303447,0.015348,-218.099991,-109.619995,-180.839996,-93.430,-47.063,84.013,,walk
2025-10-28T17:44:57.708356,9801,195,7.474997,5.997775,0.818817,9.003239,-2.924376,0.194935,-1.528242,8.922151,0.623882,0.090484,0.303447,0.015348,-218.099991,-109.619995,-180.839996,-89.294,-50.999,82.226,,walk
2025-10-28T17:44:57.758489,9851,196,7.474997,5.997775,0.818817,9.003239,-2.924376,0.194935,-1.528242,8.922151,0.623882,0.090484,0.303447,0.015348,-216.959991,-110.699997,-182.519989,-88.858,-50.999,82.226,,walk
2025-10-28T17:44:57.808435,9901,197,7.474997,5.997775,0.818817,8.974525,-3.680323,0.312937,-1.499528,9.678098,0.505880,-0.032910,-0.014813,0.036728,-216.959991,-110.699997,-182.519989,-88.858,-50.999,82.226,,walk
2025-10-28T17:44:57.858447,9951,198,7.474997,5.997775,0.818817,8.974525,-3.680323,0.312937,-1.499528,9.678098,0.505880,-0.032910,-0.014813,0.036728,-216.959991,-110.699997,-182.519989,-88.858,-50.999,82.226,,walk
2025-10-28T17:44:57.908409,10001,199,8.274660,5.212476,-0.610521,8.974525,-3.680323,0.312937,-0.699865,8.892799,-0.923458,-0.032910,-0.014813,0.036728,-216.959991,-110.699997,-182.519989,-82.597,-57.616,96.680,,walk
2025-10-28T17:44:57.958309,10051,200,8.274660,5.212476,-0.610521,9.505733,-4.487154,-1.366637,-1.231073,9.699630,0.756116,-0.152640,0.098197,-0.034743,-218.039993,-115.739998,-174.839996,-83.911,-57.616,96.680,,walk
2025-10-28T17:44:58.009422,10102,201,8.274660,5.212476,-0.610521,9.505733,-4.487154,-1.366637,-1.231073,9.699630,0.756116,-0.152640,0.098197,-0.034743,-218.039993,-115.739998,-174.839996,-83.911,-57.616,96.680,,walk
2025-10-28T17:44:58.058376,10151,202,8.114249,5.787085,-0.363919,9.505733,-4.487154,-1.366637,-1.391484,10.274238,1.002719,-0.152640,0.098197,-0.034743,-218.039993,-115.739998,-174.839996,-86.899,-54.450,93.598,,walk
2025-10-28T17:44:58.108852,10201,203,8.114249,5.787085,-0.363919,9.505733,-4.487154,-1.366637,-1.391484,10.274238,1.002719,-0.152640,0.098197,-0.034743,-218.039993,-115.739998,-174.839996,-86.899,-54.450,93.598,,walk
2025-10-28T17:44:58.159213,10252,204,8.114249,5.787085,-0.363919,9.008715,-3.928202,-1.355454,-0.894465,9.715286,0.991536,0.243201,-1.222494,1.018389,-216.239990,-114.119995,-180.239990,-85.836,-54.450,93.598,,walk
2025-10-28T17:44:58.208292,10301,205,8.114249,5.787085,-0.363919,9.008715,-3.928202,-1.355454,-0.894465,9.715286,0.991536,0.243201,-1.222494,1.018389,-216.239990,-114.119995,-180.239990,-85.836,-54.450,93.598,,walk
2025-10-28T17:44:58.258804,10351,206,6.153398,-0.203507,0.275333,9.008715,-3.928202,-1.355454,-2.855317,3.724695,1.630787,0.243201,-1.222494,1.018389,-216.239990,-114.119995,-180.239990,53.390,-86.815,-36.469,,walk
2025-10-28T17:44:58.308459,10401,207,6.153398,-0.203507,0.275333,9.008715,-3.928202,-1.355454,-2.855317,3.724695,1.630787,0.243201,-1.222494,1.018389,-216.239990,-114.119995,-180.239990,53.390,-86.815,-36.469,,walk
2025-10-28T17:44:58.358825,10451,208,6.153398,-0.203507,0.275333,6.134874,-9.915316,-1.084924,0.018524,9.711808,1.360257,-0.233274,-0.154702,0.019624,-213.059998,-122.399994,-177.539993,54.361,-86.815,-36.469,,walk
2025-10-28T17:44:58.408264,10501,209,8.650550,3.684676,1.649605,6.134874,-9.915316,-1.084924,2.515676,13.599992,2.734529,-0.233274,-0.154702,0.019624,-213.059998,-122.399994,-177.539993,-70.025,-64.982,65.882,,walk
2025-10-28T17:44:58.458466,10551,210,8.650550,3.684676,1.649605,6.134874,-9.915316,-1.084924,2.515676,13.599992,2.734529,-0.233274,-0.154702,0.019624,-213.059998,-122.399994,-177.539993,-70.025,-64.982,65.882,,walk
2025-10-28T17:44:58.508306,10601,211,8.650550,3.684676,1.649605,8.983217,-5.891531,-0.437393,-0.332667,9.576207,2.086998,-0.237550,0.313221,-0.142866,-232.199997,80.099998,-129.839996,-85.951,-64.982,65.882,,walk
2025-10-28T17:44:58.559187,10652,212,8.650550,3.684676,1.649605,8.983217,-5.891531,-0.437393,-0.332667,9.576207,2.086998,-0.237550,0.313221,-0.142866,-232.199997,80.099998,-129.839996,-85.951,-64.982,65.882,,walk
2025-10-28T17:44:58.608123,10701,213,9.452607,7.005733,2.262521,8.983217,-5.891531,-0.437393,0.469390,12.897264,2.699914,-0.237550,0.313221,-0.142866,-232.199997,80.099998,-129.839996,-98.329,-52.087,72.102,,walk
2025-10-28T17:44:58.658351,10751,214,9.452607,7.005733,2.262521,8.983217,-5.891531,-0.437393,0.469390,12.897264,2.699914,-0.237550,0.313221,-0.142866,-232.199997,80.099998,-129.839996,-98.329,-52.087,72.102,,walk
2025-10-28T17:44:58.708670,10801,215,9.452607,7.005733,2.262521,9.724578,-2.734654,1.157581,-0.271971,9.740388,1.104939,0.863229,-0.796721,0.032452,-214.080002,101.279999,-96.779999,-102.525,-52.087,72.102,,walk
2025-10-28T17:44:58.759230,10852,216,9.452607,7.005733,2.262521,9.724578,-2.734654,1.157581,-0.271971,9.740388,1.104939,0.863229,-0.796721,0.032452,-214.080002,101.279999,-96.779999,-102.525,-52.087,72.102,,walk
2025-10-28T17:44:58.808973,10901,217,8.846874,4.503493,0.040701,9.724578,-2.734654,1.157581,-0.877704,7.238148,-1.116880,0.863229,-0.796721,0.032452,-214.080002,101.279999,-96.779999,-92.643,-63.021,89.482,,walk
2025-10-28T17:44:58.858450,10951,218,8.846874,4.503493,0.040701,9.724578,-2.734654,1.157581,-0.877704,7.238148,-1.116880,0.863229,-0.796721,0.032452,-214.080002,101.279999,-96.779999,-92.643,-63.021,89.482,,walk
2025-10-28T17:44:58.909360,11002,219,8.846874,4.503493,0.040701,9.184422,-5.292255,-0.274332,-0.337548,9.795749,0.315033,0.271301,-0.258549,-0.095829,-214.080002,101.279999,-96.779999,-92.643,-63.021,89.482,,walk
2025-10-28T17:44:58.958248,11051,220,6.505345,6.234800,-2.272097,9.184422,-5.292255,-0.274332,-2.679077,11.527056,-1.997765,0.271301,-0.258549,-0.095829,-251.879990,-86.580002,-151.860001,-103.901,-44.431,110.023,,walk
2025-10-28T17:44:59.008985,11101,221,6.505345,6.234800,-2.272097,9.184422,-5.292255,-0.274332,-2.679077,11.527056,-1.997765,0.271301,-0.258549,-0.095829,-251.879990,-86.580002,-151.860001,-103.901,-44.431,110.023,,walk
2025-10-28T17:44:59.058759,11151,222,6.505345,6.234800,-2.272097,7.315321,-3.529857,-2.678883,-0.809976,9.764657,0.406786,0.922483,-3.111900,0.229151,-251.879990,-86.580002,-151.860001,-103.901,-44.431,110.023,,walk
2025-10-28T17:44:59.108473,11201,223,6.505345,6.234800,-2.272097,7.315321,-3.529857,-2.678883,-0.809976,9.764657,0.406786,0.922483,-3.111900,0.229151,-90.839996,-232.379990,-125.519997,-84.125,-44.431,110.023,,walk
2025-10-28T17:44:59.158875,11251,224,7.046435,6.694487,3.557784,7.315321,-3.529857,-2.678883,-0.268886,10.224344,6.236667,0.922483,-3.111900,0.229151,-90.839996,-232.379990,-125.519997,-54.726,-42.906,62.012,,walk
2025-10-28T17:44:59.209449,11302,225,7.046435,6.694487,3.557784,7.315321,-3.529857,-2.678883,-0.268886,10.224344,6.236667,0.922483,-3.111900,0.229151,-90.839996,-232.379990,-125.519997,-54.726,-42.906,62.012,,walk
2025-10-28T17:44:59.258825,11351,226,7.046435,6.694487,3.557784,8.069174,-3.056941,3.741588,-1.022739,9.751428,-0.183804,0.042226,0.409127,0.387976,-90.839996,-232.379990,-125.519997,-54.726,-42.906,62.012,,walk
2025-10-28T17:44:59.308105,11400,227,4.462792,7.094319,-1.228225,8.069174,-3.056941,3.741588,-3.606382,10.151259,-4.969813,0.042226,0.409127,0.387976,-91.259995,-235.919998,-120.000000,-94.361,-31.792,99.822,,walk
2025-10-28T17:44:59.358800,11451,228,4.462792,7.094319,-1.228225,8.069174,-3.056941,3.741588,-3.606382,10.151259,-4.969813,0.042226,0.409127,0.387976,-91.259995,-235.919998,-120.000000,-94.361,-31.792,99.822,,walk
2025-10-28T17:44:59.408419,11501,229,4.462792,7.094319,-1.228225,5.312356,-2.667430,-0.832633,-0.849565,9.761749,-0.395593,-0.376828,-0.242055,-0.205785,-91.259995,-235.919998,-120.000000,-94.361,-31.792,99.822,,walk
2025-10-28T17:44:59.459107,11551,230,4.462792,7.094319,-1.228225,5.312356,-2.667430,-0.832633,-0.849565,9.761749,-0.395593,-0.376828,-0.242055,-0.205785,-91.259995,-235.919998,-120.000000,-94.361,-31.792,99.822,,walk
2025-10-28T17:44:59.508724,11601,231,7.012916,5.540482,0.047884,5.312356,-2.667430,-0.832633,1.700560,8.207912,0.880517,-0.376828,-0.242055,-0.205785,-91.259995,-235.919998,-120.000000,-75.368,-51.689,89.505,,walk
2025-10-28T17:44:59.558456,11651,232,7.012916,5.540482,0.047884,5.312356,-2.667430,-0.832633,1.700560,8.207912,0.880517,-0.376828,-0.242055,-0.205785,-94.259995,-236.220001,-118.199997,-76.704,-51.689,89.505,,walk
2025-10-28T17:44:59.608436,11701,233,7.012916,5.540482,0.047884,7.604183,-4.243614,-0.255093,-0.591267,9.784096,0.302977,-0.478231,-0.094226,0.444786,-94.259995,-236.220001,-118.199997,-76.704,-51.689,89.505,,walk
2025-10-28T17:44:59.659884,11752,234,7.012916,5.540482,0.047884,7.604183,-4.243614,-0.255093,-0.591267,9.784096,0.302977,-0.478231,-0.094226,0.444786,-94.259995,-236.220001,-118.199997,-76.704,-51.689,89.505,,walk
2025-10-28T17:44:59.708363,11801,235,8.791808,5.609914,0.948104,7.604183,-4.243614,-0.255093,1.187625,9.853528,1.203197,-0.478231,-0.094226,0.444786,-94.259995,-236.220001,-118.199997,-64.785,-57.092,80.407,,walk
2025-10-28T17:44:59.758878,11851,236,8.791808,5.609914,0.948104,8.777066,-4.176908,0.325272,0.014742,9.786821,0.622832,-0.036576,0.116523,0.197386,-92.519997,-234.599991,-124.019997,-62.608,-57.092,80.407,,walk
2025-10-28T17:44:59.808187,11901,237,8.791808,5.609914,0.948104,8.777066,-4.176908,0.325272,0.014742,9.786821,0.622832,-0.036576,0.116523,0.197386,-92.519997,-234.599991,-124.019997,-62.608,-57.092,80.407,,walk
2025-10-28T17:44:59.858250,11951,238,8.286632,5.779902,0.184354,8.777066,-4.176908,0.325272,-0.490435,9.956810,-0.140918,-0.036576,0.116523,0.197386,-92.519997,-234.599991,-124.019997,-70.708,-55.091,88.173,,walk
2025-10-28T17:44:59.908462,12001,239,8.286632,5.779902,0.184354,8.777066,-4.176908,0.325272,-0.490435,9.956810,-0.140918,-0.036576,0.116523,0.197386,-92.519997,-234.599991,-124.019997,-70.708,-55.091,88.173,,walk
2025-10-28T17:44:59.958723,12051,240,8.286632,5.779902,0.184354,8.151358,-4.017415,-0.220966,0.135274,9.797317,0.405319,0.254807,0.287565,-0.034743,-93.720001,-231.659988,-125.219994,-70.824,-55.091,88.173,,walk
2025-10-28T17:45:00.008285,12101,241,8.286632,5.779902,0.184354,8.151358,-4.017415,-0.220966,0.135274,9.797317,0.405319,0.254807,0.287565,-0.034743,-93.720001,-231.659988,-125.219994,-70.824,-55.091,88.173,,walk
2025-10-28T17:45:00.058431,12151,242,6.208464,4.436456,0.373495,8.151358,-4.017415,-0.220966,-1.942894,8.453870,0.594461,0.254807,0.287565,-0.034743,-93.720001,-231.659988,-125.219994,-69.950,-54.355,85.188,,walk
2025-10-28T17:45:00.108319,12201,243,6.208464,4.436456,0.373495,8.151358,-4.017415,-0.220966,-1.942894,8.453870,0.594461,0.254807,0.287565,-0.034743,-93.720001,-231.659988,-125.219994,-69.950,-54.355,85.188,,walk
2025-10-28T17:45:00.159356,12252,244,6.208464,4.436456,0.373495,3.640687,-5.025807,0.168054,2.567777,9.462263,0.205441,-0.061621,-0.034361,-0.030467,-91.919998,-232.379990,-126.299995,-69.067,-54.355,85.188,,walk
2025-10-28T17:45:00.208331,12301,245,8.013692,5.401618,0.656011,3.640687,-5.025807,0.168054,4.373004,10.427426,0.487957,-0.061621,-0.034361,-0.030467,-91.919998,-232.379990,-126.299995,-65.855,-55.823,83.076,,walk
2025-10-28T17:45:00.258394,12351,246,8.013692,5.401618,0.656011,3.640687,-5.025807,0.168054,4.373004,10.427426,0.487957,-0.061621,-0.034361,-0.030467,-91.919998,-232.379990,-126.299995,-65.855,-55.823,83.076,,walk
2025-10-28T17:45:00.308436,12401,247,8.013692,5.401618,0.656011,5.302872,-4.013190,0.228177,2.710820,9.414808,0.427834,-0.177685,-0.146760,0.004963,-91.919998,-232.379990,-126.299995,-65.855,-55.823,83.076,,walk
2025-10-28T17:45:00.358440,12451,248,8.013692,5.401618,0.656011,5.302872,-4.013190,0.228177,2.710820,9.414808,0.427834,-0.177685,-0.146760,0.004963,-92.279999,-232.679993,-125.040001,-66.281,-55.823,83.076,,walk
2025-10-28T17:45:00.408367,12501,249,8.291420,5.013758,0.605733,5.302872,-4.013190,0.228177,2.988548,9.026947,0.377556,-0.177685,-0.146760,0.004963,-92.279999,-232.679993,-125.040001,-62.906,-58.655,83.111,,walk
2025-10-28T17:45:00.458274,12551,250,8.291420,5.013758,0.605733,5.302872,-4.013190,0.228177,2.988548,9.026947,0.377556,-0.177685,-0.146760,0.004963,-92.279999,-232.679993,-125.040001,-62.906,-58.655,83.111,,walk
2025-10-28T17:45:00.508728,12601,251,8.291420,5.013758,0.605733,2.150447,-2.596571,-0.129966,6.140973,7.610329,0.735699,-0.296193,-0.197462,0.068493,-92.279999,-232.679993,-125.040001,-62.906,-58.655,83.111,,walk
2025-10-28T17:45:00.559282,12652,252,8.291420,5.013758,0.605733,2.150447,-2.596571,-0.129966,6.140973,7.610329,0.735699,-0.296193,-0.197462,0.068493,-93.419998,-231.239990,-126.059998,-63.130,-58.655,83.111,,walk
2025-10-28T17:45:00.608424,12701,253,7.791032,5.753566,0.687136,2.150447,-2.596571,-0.129966,5.640585,8.350137,0.817101,-0.296193,-0.197462,0.068493,-93.419998,-231.239990,-126.059998,-69.543,-53.361,83.190,,walk
2025-10-28T17:45:00.658339,12751,254,7.791032,5.753566,0.687136,2.150447,-2.596571,-0.129966,5.640585,8.350137,0.817101,-0.296193,-0.197462,0.068493,-93.419998,-231.239990,-126.059998,-69.543,-53.361,83.190,,walk
2025-10-28T17:45:00.708385,12801,255,7.791032,5.753566,0.687136,0.947043,-1.221888,-0.133102,6.843988,6.975453,0.820237,0.039172,0.109803,0.071548,-93.419998,-231.239990,-126.059998,-69.543,-53.361,83.190,,walk
2025-10-28T17:45:00.758344,12851,256,8.617031,4.980239,0.392649,0.947043,-1.221888,-0.133102,7.669988,6.202127,0.525751,0.039172,0.109803,0.071548,-94.139999,-231.119995,-126.839996,-63.692,-59.897,85.492,,walk
2025-10-28T17:45:00.808397,12901,257,8.617031,4.980239,0.392649,0.947043,-1.221888,-0.133102,7.669988,6.202127,0.525751,0.039172,0.109803,0.071548,-94.139999,-231.119995,-126.839996,-63.692,-59.897,85.492,,walk
2025-10-28T17:45:00.858876,12951,258,8.617031,4.980239,0.392649,1.639215,-1.877633,-0.277917,6.977817,6.857872,0.670566,0.042226,-0.163254,-0.120875,-94.139999,-231.119995,-126.839996,-63.692,-59.897,85.492,,walk
2025-10-28T17:45:00.908404,13001,259,8.617031,4.980239,0.392649,1.639215,-1.877633,-0.277917,6.977817,6.857872,0.670566,0.042226,-0.163254,-0.120875,-94.139999,-231.119995,-126.839996,-63.692,-59.897,85.492,,walk
2025-10-28T17:45:00.958587,13051,260,8.480561,4.987422,0.629675,1.639215,-1.877633,-0.277917,6.841347,6.865055,0.907592,0.042226,-0.163254,-0.120875,-93.959999,-232.319992,-125.399994,-62.366,-59.342,82.804,,walk
2025-10-28T17:45:01.008439,13101,261,8.480561,4.987422,0.629675,1.639215,-1.877633,-0.277917,6.841347,6.865055,0.907592,0.042226,-0.163254,-0.120875,-93.959999,-232.319992,-125.399994,-62.366,-59.342,82.804,,walk
2025-10-28T17:45:01.058780,13151,262,8.480561,4.987422,0.629675,0.404627,-0.556837,0.170773,8.075934,5.544258,0.458902,-0.268093,-0.239001,-0.057345,-93.959999,-232.319992,-125.399994,-62.366,-59.342,82.804,,walk
2025-10-28T17:45:01.108242,13201,263,7.910742,5.715259,0.459687,0.404627,-0.556837,0.170773,7.506115,6.272095,0.288914,-0.268093,-0.239001,-0.057345,-93.959999,-232.319992,-125.399994,-70.438,-54.065,85.402,,walk
2025-10-28T17:45:01.158233,13251,264,7.910742,5.715259,0.459687,0.404627,-0.556837,0.170773,7.506115,6.272095,0.288914,-0.268093,-0.239001,-0.057345,-94.379997,-232.619995,-123.779999,-70.962,-54.065,85.402,,walk
2025-10-28T17:45:01.208193,13301,265,7.910742,5.715259,0.459687,-0.182856,0.197204,-0.003951,8.093597,5.518054,0.463638,-0.001145,-0.009316,-0.007865,-94.379997,-232.619995,-123.779999,-70.962,-54.065,85.402,,walk
2025-10-28T17:45:01.258677,13351,266,7.910742,5.715259,0.459687,-0.182856,0.197204,-0.003951,8.093597,5.518054,0.463638,-0.001145,-0.009316,-0.007865,-94.379997,-232.619995,-123.779999,-70.962,-54.065,85.402,,walk
2025-10-28T17:45:01.308431,13401,267,8.607454,4.898836,0.117316,-0.182856,0.197204,-0.003951,8.790310,4.701632,0.121267,-0.001145,-0.009316,-0.007865,-94.379997,-232.619995,-123.779999,-66.143,-60.347,88.628,,walk
2025-10-28T17:45:01.358399,13451,268,8.607454,4.898836,0.117316,-0.182856,0.197204,-0.003951,8.790310,4.701632,0.121267,-0.001145,-0.009316,-0.007865,-95.040001,-233.519989,-123.360001,-66.436,-60.347,88.628,,walk
2025-10-28T17:45:01.408446,13501,269,8.607454,4.898836,0.117316,0.216130,-0.169214,-0.148591,8.391324,5.068050,0.265907,-0.083001,-0.087506,-0.022526,-95.040001,-233.519989,-123.360001,-66.436,-60.347,88.628,,walk
2025-10-28T17:45:01.458297,13551,270,8.607454,4.898836,0.117316,0.216130,-0.169214,-0.148591,8.391324,5.068050,0.265907,-0.083001,-0.087506,-0.022526,-95.040001,-233.519989,-123.360001,-66.436,-60.347,88.628,,walk
2025-10-28T17:45:01.509481,13602,271,8.071154,5.435137,0.526724,0.216130,-0.169214,-0.148591,7.855023,5.604351,0.675315,-0.083001,-0.087506,-0.022526,-95.040001,-233.519989,-123.360001,-68.570,-55.919,84.465,,walk
2025-10-28T17:45:01.558241,13651,272,8.071154,5.435137,0.526724,-0.232232,0.226264,0.224393,8.303386,5.208873,0.302332,-0.032299,-0.031918,-0.014584,-96.059998,-234.959991,-121.079994,-69.470,-55.919,84.465,,walk
2025-10-28T17:45:01.608245,13701,273,8.071154,5.435137,0.526724,-0.232232,0.226264,0.224393,8.303386,5.208873,0.302332,-0.032299,-0.031918,-0.014584,-96.059998,-234.959991,-121.079994,-69.470,-55.919,84.465,,walk
2025-10-28T17:45:01.658195,13751,274,7.934684,5.569212,0.423774,-0.232232,0.226264,0.224393,8.166916,5.342948,0.199381,-0.032299,-0.031918,-0.014584,-96.059998,-234.959991,-121.079994,-71.412,-54.858,85.649,,walk
2025-10-28T17:45:01.709386,13802,275,7.934684,5.569212,0.423774,-0.232232,0.226264,0.224393,8.166916,5.342948,0.199381,-0.032299,-0.031918,-0.014584,-96.059998,-234.959991,-121.079994,-71.412,-54.858,85.649,,walk
2025-10-28T17:45:01.758356,13851,276,7.934684,5.569212,0.423774,-0.272530,0.212356,0.083365,8.207213,5.356857,0.340409,0.117362,0.103084,-0.003589,-97.500000,-239.339996,-120.779999,-71.925,-54.858,85.649,,walk
2025-10-28T17:45:01.808358,13901,277,7.934684,5.569212,0.423774,-0.272530,0.212356,0.083365,8.207213,5.356857,0.340409,0.117362,0.103084,-0.003589,-97.500000,-239.339996,-120.779999,-71.925,-54.858,85.649,,walk
2025-10-28T17:45:01.858694,13951,278,8.068759,5.320215,0.093374,-0.272530,0.212356,0.083365,8.341289,5.107860,0.010009,0.117362,0.103084,-0.003589,-97.500000,-239.339996,-120.779999,-71.830,-56.597,88.995,,walk
2025-10-28T17:45:01.908216,14001,279,8.068759,5.320215,0.093374,-0.272530,0.212356,0.083365,8.341289,5.107860,0.010009,0.117362,0.103084,-0.003589,-97.500000,-239.339996,-120.779999,-71.830,-56.597,88.995,,walk
2025-10-28T17:45:01.958346,14051,280,8.068759,5.320215,0.093374,-0.108527,-0.086345,-0.173307,8.177286,5.406560,0.266681,0.084987,0.014508,-0.012752,-95.639999,-236.580002,-123.599998,-70.628,-56.597,88.995,,walk
2025-10-28T17:45:02.008285,14101,281,8.571542,5.353734,1.776498,-0.108527,-0.086345,-0.173307,8.680069,5.440079,1.949805,0.084987,0.014508,-0.012752,-95.639999,-236.580002,-123.599998,-52.403,-56.652,71.643,,walk
2025-10-28T17:45:02.058734,14151,282,8.571542,5.353734,1.776498,-0.108527,-0.086345,-0.173307,8.680069,5.440079,1.949805,0.084987,0.014508,-0.012752,-95.639999,-236.580002,-123.599998,-52.403,-56.652,71.643,,walk
2025-10-28T17:45:02.108283,14201,283,8.571542,5.353734,1.776498,0.484498,-0.193270,1.749750,8.087044,5.547004,0.026747,0.124082,-0.142484,-0.171577,-95.639999,-236.580002,-123.599998,-52.403,-56.652,71.643,,walk
2025-10-28T17:45:02.158004,14250,284,8.571542,5.353734,1.776498,0.484498,-0.193270,1.749750,8.087044,5.547004,0.026747,0.124082,-0.142484,-0.171577,-95.220001,-236.039993,-122.699997,-52.422,-56.652,71.643,,walk
2025-10-28T17:45:02.208459,14301,285,6.809409,5.099949,0.191536,0.484498,-0.193270,1.749750,6.324911,5.293219,-1.558214,0.124082,-0.142484,-0.171577,-95.220001,-236.039993,-122.699997,-73.738,-53.149,87.849,,walk
2025-10-28T17:45:02.258643,14351,286,6.809409,5.099949,0.191536,0.484498,-0.193270,1.749750,6.324911,5.293219,-1.558214,0.124082,-0.142484,-0.171577,-95.220001,-236.039993,-122.699997,-73.738,-53.149,87.849,,walk
2025-10-28T17:45:02.308404,14401,287,6.809409,5.099949,0.191536,-1.304648,-0.396988,-0.148959,8.114058,5.496937,0.340495,-0.077504,-0.059407,0.069104,-95.220001,-236.039993,-122.699997,-73.738,-53.149,87.849,,walk
2025-10-28T17:45:02.358903,14451,288,6.809409,5.099949,0.191536,-1.304648,-0.396988,-0.148959,8.114058,5.496937,0.340495,-0.077504,-0.059407,0.069104,-95.939995,-236.339996,-122.219994,-74.074,-53.149,87.849,,walk
2025-10-28T17:45:02.408971,14501,289,7.884406,5.791873,0.260968,-1.304648,-0.396988,-0.148959,9.189054,6.188861,0.409927,-0.077504,-0.059407,0.069104,-95.939995,-236.339996,-122.219994,-73.318,-53.671,87.420,,walk
2025-10-28T17:45:02.458111,14550,290,7.884406,5.791873,0.260968,-1.304648,-0.396988,-0.148959,9.189054,6.188861,0.409927,-0.077504,-0.059407,0.069104,-95.939995,-236.339996,-122.219994,-73.318,-53.671,87.420,,walk
2025-10-28T17:45:02.508185,14601,291,7.884406,5.791873,0.260968,-0.285635,0.385747,-0.179856,8.170040,5.406126,0.440824,-0.218003,-0.046578,0.026344,-95.939995,-236.339996,-122.219994,-73.318,-53.671,87.420,,walk
2025-10-28T17:45:02.558705,14651,292,8.293814,5.348946,-0.102951,-0.285635,0.385747,-0.179856,8.579448,4.963199,0.076906,-0.218003,-0.046578,0.026344,-94.559998,-235.500000,-123.540001,-70.801,-57.176,91.103,,walk
2025-10-28T17:45:02.608095,14700,293,8.293814,5.348946,-0.102951,-0.285635,0.385747,-0.179856,8.579448,4.963199,0.076906,-0.218003,-0.046578,0.026344,-94.559998,-235.500000,-123.540001,-70.801,-57.176,91.103,,walk
2025-10-28T17:45:02.657994,14750,294,8.293814,5.348946,-0.102951,0.052292,0.034341,-0.054845,8.241522,5.314605,-0.048106,-0.429362,-0.230449,0.037950,-94.559998,-235.500000,-123.540001,-70.801,-57.176,91.103,,walk
2025-10-28T17:45:02.708010,14800,295,8.293814,5.348946,-0.102951,0.052292,0.034341,-0.054845,8.241522,5.314605,-0.048106,-0.429362,-0.230449,0.037950,-96.419998,-233.220001,-124.559998,-71.093,-57.176,91.103,,walk
2025-10-28T17:45:02.758153,14851,296,7.762301,5.815815,-0.146046,0.052292,0.034341,-0.054845,7.710009,5.781474,-0.091201,-0.429362,-0.230449,0.037950,-96.419998,-233.220001,-124.559998,-75.135,-53.149,91.439,,walk
2025-10-28T17:45:02.808558,14901,297,7.762301,5.815815,-0.146046,0.052292,0.034341,-0.054845,7.710009,5.781474,-0.091201,-0.429362,-0.230449,0.037950,-96.419998,-233.220001,-124.559998,-75.135,-53.149,91.439,,walk
2025-10-28T17:45:02.858234,14951,298,7.762301,5.815815,-0.146046,-0.309094,0.246166,-0.188163,8.071395,5.569649,0.042117,0.003131,-0.033750,0.000687,-96.419998,-233.220001,-124.559998,-75.135,-53.149,91.439,,walk
2025-10-28T17:45:02.907908,15000,299,7.611466,5.588366,-0.014365,-0.309094,0.246166,-0.188163,7.920560,5.342200,0.173798,0.003131,-0.033750,0.000687,-96.299995,-233.639999,-124.919998,-73.975,-53.714,90.147,,walk
2025-10-28T17:45:02.958288,15051,300,7.611466,5.588366,-0.014365,-0.309094,0.246166,-0.188163,7.920560,5.342200,0.173798,0.003131,-0.033750,0.000687,-96.299995,-233.639999,-124.919998,-73.975,-53.714,90.147,,walk
2025-10-28T17:45:03.008972,15101,301,7.611466,5.588366,-0.014365,-0.473690,0.038638,-0.046883,8.085156,5.549728,0.032518,0.105756,0.090866,0.059941,-96.299995,-233.639999,-124.919998,-73.975,-53.714,90.147,,walk
2025-10-28T17:45:03.057983,15150,302,7.611466,5.588366,-0.014365,-0.473690,0.038638,-0.046883,8.085156,5.549728,0.032518,0.105756,0.090866,0.059941,-96.299995,-233.639999,-124.919998,-73.975,-53.714,90.147,,walk
2025-10-28T17:45:03.108081,15200,303,7.905953,5.528511,0.256180,-0.473690,0.038638,-0.046883,8.379643,5.489873,0.303063,0.105756,0.090866,0.059941,-97.019997,-234.539993,-125.219994,-71.497,-55.007,87.347,,walk
2025-10-28T17:45:03.158001,15250,304,7.905953,5.528511,0.256180,-0.473690,0.038638,-0.046883,8.379643,5.489873,0.303063,0.105756,0.090866,0.059941,-97.019997,-234.539993,-125.219994,-71.497,-55.007,87.347,,walk
2025-10-28T17:45:03.208046,15300,305,7.905953,5.528511,0.256180,-0.201429,0.016045,0.025396,8.107383,5.512466,0.230784,0.180282,0.084147,-0.064064,-97.019997,-234.539993,-125.219994,-71.497,-55.007,87.347,,walk
2025-10-28T17:45:03.258435,15351,306,8.298602,5.315427,0.593762,-0.201429,0.016045,0.025396,8.500031,5.299382,0.568366,0.180282,0.084147,-0.064064,-97.019997,-234.539993,-125.219994,-66.712,-57.198,83.626,,walk
2025-10-28T17:45:03.307908,15400,307,8.298602,5.315427,0.593762,-0.201429,0.016045,0.025396,8.500031,5.299382,0.568366,0.180282,0.084147,-0.064064,-96.479996,-235.799988,-125.459999,-66.438,-57.198,83.626,,walk
2025-10-28T17:45:03.358290,15451,308,8.298602,5.315427,0.593762,0.193049,-0.199371,0.354870,8.105553,5.514798,0.238892,0.130191,-0.026420,-0.087277,-96.479996,-235.799988,-125.459999,-66.438,-57.198,83.626,,walk
2025-10-28T17:45:03.408324,15501,309,8.298602,5.315427,0.593762,0.193049,-0.199371,0.354870,8.105553,5.514798,0.238892,0.130191,-0.026420,-0.087277,-96.479996,-235.799988,-125.459999,-66.438,-57.198,83.626,,walk
2025-10-28T17:45:03.459915,15552,310,8.042423,5.540482,0.253785,0.193049,-0.199371,0.354870,7.849374,5.739853,-0.101085,0.130191,-0.026420,-0.087277,-96.479996,-235.799988,-125.459999,-70.852,-55.409,87.377,,walk
2025-10-28T17:45:03.507929,15600,311,8.042423,5.540482,0.253785,0.193049,-0.199371,0.354870,7.849374,5.739853,-0.101085,0.130191,-0.026420,-0.087277,-94.979996,-236.459991,-125.219994,-70.431,-55.409,87.377,,walk
2025-10-28T17:45:03.558171,15651,312,8.042423,5.540482,0.253785,-0.046652,0.000612,0.037478,8.089075,5.539870,0.216307,-0.017028,0.033445,-0.001145,-94.979996,-236.459991,-125.219994,-70.431,-55.409,87.377,,walk
2025-10-28T17:45:03.607972,15700,313,8.042423,5.540482,0.253785,-0.046652,0.000612,0.037478,8.089075,5.539870,0.216307,-0.017028,0.033445,-0.001145,-94.979996,-236.459991,-125.219994,-70.431,-55.409,87.377,,walk
2025-10-28T17:45:03.657998,15750,314,8.195652,5.377676,0.723049,-0.046652,0.000612,0.037478,8.242304,5.377064,0.685571,-0.017028,0.033445,-0.001145,-94.979996,-236.459991,-125.219994,-65.769,-56.493,82.342,,walk
2025-10-28T17:45:03.708294,15801,315,8.195652,5.377676,0.723049,0.099586,-0.149059,0.442263,8.096066,5.526735,0.280786,-0.074449,-0.074067,0.016570,-95.400002,-235.019989,-126.000000,-65.776,-56.493,82.342,,walk
2025-10-28T17:45:03.758131,15851,316,8.195652,5.377676,0.723049,0.099586,-0.149059,0.442263,8.096066,5.526735,0.280786,-0.074449,-0.074067,0.016570,-95.400002,-235.019989,-126.000000,-65.776,-56.493,82.342,,walk
2025-10-28T17:45:03.807963,15900,317,8.107066,5.679346,0.481235,0.099586,-0.149059,0.442263,8.007480,5.828404,0.038972,-0.074449,-0.074067,0.016570,-95.400002,-235.019989,-126.000000,-69.673,-54.891,85.157,,walk
2025-10-28T17:45:03.858144,15951,318,8.107066,5.679346,0.481235,0.099586,-0.149059,0.442263,8.007480,5.828404,0.038972,-0.074449,-0.074067,0.016570,-95.400002,-235.019989,-126.000000,-69.673,-54.891,85.157,,walk
2025-10-28T17:45:03.907919,16000,319,8.107066,5.679346,0.481235,0.012303,0.151816,0.179131,8.094763,5.527529,0.302104,0.014737,0.064599,0.012294,-96.059998,-235.199997,-125.579994,-69.993,-54.891,85.157,,walk
2025-10-28T17:45:03.957967,16050,320,8.107066,5.679346,0.481235,0.012303,0.151816,0.179131,8.094763,5.527529,0.302104,0.014737,0.064599,0.012294,-96.059998,-235.199997,-125.579994,-69.993,-54.891,85.157,,walk
2025-10-28T17:45:04.009168,16102,321,7.834127,5.471050,0.883460,0.012303,0.151816,0.179131,7.821824,5.319234,0.704330,0.014737,0.064599,0.012294,-96.059998,-235.199997,-125.579994,-67.128,-54.724,80.827,,walk
2025-10-28T17:45:04.058703,16151,322,7.834127,5.471050,0.883460,0.012303,0.151816,0.179131,7.821824,5.319234,0.704330,0.014737,0.064599,0.012294,-96.059998,-235.199997,-125.579994,-67.128,-54.724,80.827,,walk
2025-10-28T17:45:04.108468,16201,323,7.834127,5.471050,0.883460,-0.234647,-0.092151,0.543300,8.068774,5.563201,0.340160,0.139965,0.096364,-0.007865,-96.239998,-237.179993,-124.919998,-67.308,-54.724,80.827,,walk
2025-10-28T17:45:04.158814,16251,324,7.834127,5.471050,0.883460,-0.234647,-0.092151,0.543300,8.068774,5.563201,0.340160,0.139965,0.096364,-0.007865,-96.239998,-237.179993,-124.919998,-67.308,-54.724,80.827,,walk
2025-10-28T17:45:04.208640,16301,325,8.123826,5.564424,0.110133,-0.234647,-0.092151,0.543300,8.358473,5.656575,-0.433167,0.139965,0.096364,-0.007865,-96.239998,-237.179993,-124.919998,-71.481,-55.586,88.866,,walk
2025-10-28T17:45:04.258458,16351,326,8.123826,5.564424,0.110133,-0.234647,-0.092151,0.543300,8.358473,5.656575,-0.433167,0.139965,0.096364,-0.007865,-96.239998,-237.179993,-124.919998,-71.481,-55.586,88.866,,walk
2025-10-28T17:45:04.308689,16401,327,8.123826,5.564424,0.110133,0.100210,-0.068208,-0.145369,8.023616,5.632632,0.255503,-0.002367,0.036499,-0.073838,-96.239998,-237.179993,-124.919998,-71.481,-55.586,88.866,,walk
2025-10-28T17:45:04.358411,16451,328,7.704840,5.281908,0.464475,0.100210,-0.068208,-0.145369,7.604630,5.350116,0.609845,-0.002367,0.036499,-0.073838,-96.900002,-238.860001,-125.519997,-69.478,-55.465,84.975,,walk
2025-10-28T17:45:04.408752,16501,329,7.704840,5.281908,0.464475,0.100210,-0.068208,-0.145369,7.604630,5.350116,0.609845,-0.002367,0.036499,-0.073838,-96.900002,-238.860001,-125.519997,-69.478,-55.465,84.975,,walk
2025-10-28T17:45:04.458979,16551,330,7.704840,5.281908,0.464475,-0.306702,-0.369534,0.248640,8.011542,5.651443,0.215835,0.035507,-0.116217,-0.023137,-96.900002,-238.860001,-125.519997,-69.478,-55.465,84.975,,walk
2025-10-28T17:45:04.508333,16601,331,7.704840,5.281908,0.464475,-0.306702,-0.369534,0.248640,8.011542,5.651443,0.215835,0.035507,-0.116217,-0.023137,-96.900002,-238.860001,-125.519997,-69.478,-55.465,84.975,,walk
2025-10-28T17:45:04.558930,16651,332,8.765471,5.930737,-0.158017,-0.306702,-0.369534,0.248640,9.072174,6.300272,-0.406658,0.035507,-0.116217,-0.023137,-97.500000,-239.759995,-124.199997,-72.900,-55.908,91.526,,walk
2025-10-28T17:45:04.608956,16701,333,8.765471,5.930737,-0.158017,-0.306702,-0.369534,0.248640,9.072174,6.300272,-0.406658,0.035507,-0.116217,-0.023137,-97.500000,-239.759995,-124.199997,-72.900,-55.908,91.526,,walk
2025-10-28T17:45:04.658374,16751,334,8.765471,5.930737,-0.158017,0.694116,0.362309,-0.284778,8.071356,5.568429,0.126761,-0.111101,-0.075289,-0.015806,-97.500000,-239.759995,-124.199997,-72.900,-55.908,91.526,,walk
2025-10-28T17:45:04.708493,16801,335,8.229171,5.844546,0.059855,0.694116,0.362309,-0.284778,7.535055,5.482237,0.344633,-0.111101,-0.075289,-0.015806,-98.519997,-238.500000,-124.739998,-73.435,-54.615,89.413,,walk
2025-10-28T17:45:04.758475,16851,336,8.229171,5.844546,0.059855,0.694116,0.362309,-0.284778,7.535055,5.482237,0.344633,-0.111101,-0.075289,-0.015806,-98.519997,-238.500000,-124.739998,-73.435,-54.615,89.413,,walk
2025-10-28T17:45:04.808208,16901,337,8.229171,5.844546,0.059855,0.138682,0.304226,-0.076991,8.090488,5.540319,0.136847,-0.076893,-0.104000,0.080711,-98.519997,-238.500000,-124.739998,-73.435,-54.615,89.413,,walk
2025-10-28T17:45:04.858250,16951,338,8.229171,5.844546,0.059855,0.138682,0.304226,-0.076991,8.090488,5.540319,0.136847,-0.076893,-0.104000,0.080711,-98.519997,-238.500000,-124.739998,-73.435,-54.615,89.413,,walk
2025-10-28T17:45:04.908289,17001,339,8.277055,5.552453,-0.371101,0.138682,0.304226,-0.076991,8.138372,5.248227,-0.294110,-0.076893,-0.104000,0.080711,-98.519997,-238.500000,-124.739998,-73.783,-56.086,93.824,,walk
2025-10-28T17:45:04.958722,17051,340,8.277055,5.552453,-0.371101,0.138682,0.304226,-0.076991,8.138372,5.248227,-0.294110,-0.076893,-0.104000,0.080711,-99.479996,-236.879990,-124.379997,-74.091,-56.086,93.824,,walk
2025-10-28T17:45:05.008595,17101,341,8.277055,5.552453,-0.371101,0.148751,0.068826,-0.546612,8.128304,5.483627,0.175510,0.070937,0.076816,0.020235,-99.479996,-236.879990,-124.379997,-74.091,-56.086,93.824,,walk
2025-10-28T17:45:05.058318,17151,342,8.277055,5.552453,-0.371101,0.148751,0.068826,-0.546612,8.128304,5.483627,0.175510,0.070937,0.076816,0.020235,-99.479996,-236.879990,-124.379997,-74.091,-56.086,93.824,,walk
2025-10-28T17:45:05.108511,17201,343,8.324939,5.554847,-0.100556,0.148751,0.068826,-0.546612,8.176188,5.486021,0.446055,0.070937,0.076816,0.020235,-99.479996,-236.879990,-124.379997,-72.824,-56.282,91.037,,walk
2025-10-28T17:45:05.158239,17251,344,8.324939,5.554847,-0.100556,0.156858,0.131985,-0.313004,8.168080,5.422862,0.212448,-0.006643,-0.017868,-0.002978,-98.279999,-237.479996,-125.399994,-72.273,-56.282,91.037,,walk
2025-10-28T17:45:05.208207,17301,345,8.324939,5.554847,-0.100556,0.156858,0.131985,-0.313004,8.168080,5.422862,0.212448,-0.006643,-0.017868,-0.002978,-98.279999,-237.479996,-125.399994,-72.273,-56.282,91.037,,walk
2025-10-28T17:45:05.258556,17351,346,8.181287,5.696105,-0.136469,0.156858,0.131985,-0.313004,8.024428,5.564120,0.176535,-0.006643,-0.017868,-0.002978,-98.279999,-237.479996,-125.399994,-73.518,-55.145,91.372,,walk
2025-10-28T17:45:05.308204,17401,347,8.181287,5.696105,-0.136469,0.156858,0.131985,-0.313004,8.024428,5.564120,0.176535,-0.006643,-0.017868,-0.002978,-98.279999,-237.479996,-125.399994,-73.518,-55.145,91.372,,walk
2025-10-28T17:45:05.358769,17451,348,8.181287,5.696105,-0.136469,0.086586,0.160404,-0.179236,8.094701,5.535701,0.042767,0.038561,0.076205,0.007407,-97.739998,-236.459991,-124.559998,-73.551,-55.145,91.372,,walk
2025-10-28T17:45:05.408716,17501,349,8.181287,5.696105,-0.136469,0.086586,0.160404,-0.179236,8.094701,5.535701,0.042767,0.038561,0.076205,0.007407,-97.739998,-236.459991,-124.559998,-73.551,-55.145,91.372,,walk
2025-10-28T17:45:05.458293,17551,350,8.085519,5.650615,-0.093374,0.086586,0.160404,-0.179236,7.998933,5.490211,0.085862,0.038561,0.076205,0.007407,-97.739998,-236.459991,-124.559998,-73.472,-55.048,90.947,,walk
2025-10-28T17:45:05.509037,17601,351,8.085519,5.650615,-0.093374,0.086586,0.160404,-0.179236,7.998933,5.490211,0.085862,0.038561,0.076205,0.007407,-97.739998,-236.459991,-124.559998,-73.472,-55.048,90.947,,walk
2025-10-28T17:45:05.558401,17651,352,8.085519,5.650615,-0.093374,0.023890,0.066742,-0.117105,8.061629,5.583873,0.023732,0.173562,0.067653,-0.075060,-97.439995,-237.360001,-123.959999,-73.523,-55.048,90.947,,walk
2025-10-28T17:45:05.608084,17700,353,8.329727,5.198111,0.153229,0.023890,0.066742,-0.117105,8.305838,5.131369,0.270334,0.173562,0.067653,-0.075060,-97.439995,-237.360001,-123.959999,-69.237,-58.023,88.312,,walk
2025-10-28T17:45:05.659239,17752,354,8.329727,5.198111,0.153229,0.023890,0.066742,-0.117105,8.305838,5.131369,0.270334,0.173562,0.067653,-0.075060,-97.439995,-237.360001,-123.959999,-69.237,-58.023,88.312,,walk
2025-10-28T17:45:05.708222,17801,355,8.329727,5.198111,0.153229,0.231291,-0.332197,0.189473,8.098436,5.530308,-0.036244,0.114919,-0.018479,-0.045739,-97.439995,-237.360001,-123.959999,-69.237,-58.023,88.312,,walk
2025-10-28T17:45:05.758330,17851,356,8.329727,5.198111,0.153229,0.231291,-0.332197,0.189473,8.098436,5.530308,-0.036244,0.114919,-0.018479,-0.045739,-97.799995,-239.220001,-124.919998,-69.119,-58.023,88.312,,walk
2025-10-28T17:45:05.808928,17901,357,7.939472,5.827786,0.138864,0.231291,-0.332197,0.189473,7.708181,6.159983,-0.050610,0.114919,-0.018479,-0.045739,-97.799995,-239.220001,-124.919998,-73.765,-53.713,88.635,,walk
2025-10-28T17:45:05.858405,17951,358,7.939472,5.827786,0.138864,0.231291,-0.332197,0.189473,7.708181,6.159983,-0.050610,0.114919,-0.018479,-0.045739,-97.799995,-239.220001,-124.919998,-73.765,-53.713,88.635,,walk
2025-10-28T17:45:05.909744,18002,359,7.939472,5.827786,0.138864,-0.147390,0.281448,0.242435,8.086863,5.546339,-0.103571,0.095982,-0.027642,-0.023137,-97.799995,-239.220001,-124.919998,-73.765,-53.713,88.635,,walk
2025-10-28T17:45:05.958653,18051,360,7.939472,5.827786,0.138864,-0.147390,0.281448,0.242435,8.086863,5.546339,-0.103571,0.095982,-0.027642,-0.023137,-98.699997,-240.119995,-124.559998,-74.112,-53.713,88.635,,walk
2025-10-28T17:45:06.008836,18101,361,8.078336,5.801450,-0.146046,-0.147390,0.281448,0.242435,8.225726,5.520002,-0.388481,0.095982,-0.027642,-0.023137,-98.699997,-240.119995,-124.559998,-74.657,-54.307,91.442,,walk
2025-10-28T17:45:06.058615,18151,362,8.078336,5.801450,-0.146046,0.050360,0.169784,-0.068909,8.027976,5.631666,-0.077137,0.029398,0.032834,-0.034132,-98.699997,-240.119995,-124.559998,-74.657,-54.307,91.442,,walk
2025-10-28T17:45:06.108318,18201,363,8.078336,5.801450,-0.146046,0.050360,0.169784,-0.068909,8.027976,5.631666,-0.077137,0.029398,0.032834,-0.034132,-98.699997,-240.119995,-124.559998,-74.657,-54.307,91.442,,walk
2025-10-28T17:45:06.158307,18251,364,7.963414,5.748777,0.011971,0.050360,0.169784,-0.068909,7.913054,5.578994,0.080880,0.029398,0.032834,-0.034132,-97.919998,-240.779999,-124.079994,-74.055,-54.174,89.881,,walk
2025-10-28T17:45:06.208290,18301,365,7.963414,5.748777,0.011971,0.050360,0.169784,-0.068909,7.913054,5.578994,0.080880,0.029398,0.032834,-0.034132,-97.919998,-240.779999,-124.079994,-74.055,-54.174,89.881,,walk
2025-10-28T17:45:06.259889,18352,366,7.963414,5.748777,0.011971,-0.063824,0.116950,0.139442,8.027238,5.631827,-0.127471,-0.042073,-0.029474,0.036117,-97.919998,-240.779999,-124.079994,-74.055,-54.174,89.881,,walk
2025-10-28T17:45:06.308499,18401,367,7.963414,5.748777,0.011971,-0.063824,0.116950,0.139442,8.027238,5.631827,-0.127471,-0.042073,-0.029474,0.036117,-97.919998,-240.779999,-124.079994,-74.055,-54.174,89.881,,walk
2025-10-28T17:45:06.359277,18452,368,7.984962,5.894824,-0.059855,-0.063824,0.116950,0.139442,8.048786,5.777874,-0.199297,-0.042073,-0.029474,0.036117,-98.220001,-240.899994,-124.079994,-75.030,-53.562,90.582,,walk
2025-10-28T17:45:06.408463,18501,369,7.984962,5.894824,-0.059855,-0.063824,0.116950,0.139442,8.048786,5.777874,-0.199297,-0.042073,-0.029474,0.036117,-98.220001,-240.899994,-124.079994,-75.030,-53.562,90.582,,walk
2025-10-28T17:45:06.458487,18551,370,7.984962,5.894824,-0.059855,-0.036883,0.254377,0.015449,8.021845,5.640447,-0.075304,0.020846,0.089644,0.000687,-98.220001,-240.899994,-124.079994,-75.030,-53.562,90.582,,walk
2025-10-28T17:45:06.508454,18601,371,7.893982,5.916372,-0.191536,-0.036883,0.254377,0.015449,7.930865,5.661995,-0.206985,0.020846,0.089644,0.000687,-98.220001,-240.899994,-124.079994,-75.910,-53.135,91.854,,walk
2025-10-28T17:45:06.559584,18652,372,7.893982,5.916372,-0.191536,-0.036883,0.254377,0.015449,7.930865,5.661995,-0.206985,0.020846,0.089644,0.000687,-97.019997,-240.479996,-125.519997,-75.274,-53.135,91.854,,walk
2025-10-28T17:45:06.608782,18701,373,7.893982,5.916372,-0.191536,-0.082549,0.212275,-0.099947,7.976532,5.704097,-0.091589,-0.070173,-0.364839,0.111865,-97.019997,-240.479996,-125.519997,-75.274,-53.135,91.854,,walk
2025-10-28T17:45:06.658667,18751,374,7.893982,5.916372,-0.191536,-0.082549,0.212275,-0.099947,7.976532,5.704097,-0.091589,-0.070173,-0.364839,0.111865,-97.019997,-240.479996,-125.519997,-75.274,-53.135,91.854,,walk
2025-10-28T17:45:06.708751,18801,375,8.073547,5.796661,0.778116,-0.082549,0.212275,-0.099947,8.156096,5.584387,0.878062,-0.070173,-0.364839,0.111865,-97.019997,-240.479996,-125.519997,-69.377,-54.080,82.355,,walk
2025-10-28T17:45:06.759805,18852,376,8.073547,5.796661,0.778116,-0.082549,0.212275,-0.099947,8.156096,5.584387,0.878062,-0.070173,-0.364839,0.111865,-99.720001,-240.720001,-123.959999,-70.772,-54.080,82.355,,walk
2025-10-28T17:45:06.808845,18901,377,8.073547,5.796661,0.778116,0.035764,0.189357,1.127800,8.037784,5.607305,-0.349684,-0.008476,0.052993,-0.038408,-99.720001,-240.720001,-123.959999,-70.772,-54.080,82.355,,walk
2025-10-28T17:45:06.858643,18951,378,8.073547,5.796661,0.778116,0.035764,0.189357,1.127800,8.037784,5.607305,-0.349684,-0.008476,0.052993,-0.038408,-99.720001,-240.720001,-123.959999,-70.772,-54.080,82.355,,walk
2025-10-28T17:45:06.908410,19001,379,7.853281,5.729624,-0.287304,0.035764,0.189357,1.127800,7.817517,5.540267,-1.415104,-0.008476,0.052993,-0.038408,-99.720001,-240.720001,-123.959999,-75.997,-53.852,92.871,,walk
2025-10-28T17:45:06.958767,19051,380,7.853281,5.729624,-0.287304,-0.187252,0.126892,0.072287,8.040533,5.602732,-0.359591,-0.002367,-0.031307,0.076435,-99.479996,-239.819992,-124.860001,-75.738,-53.852,92.871,,walk
2025-10-28T17:45:07.008952,19101,381,7.853281,5.729624,-0.287304,-0.187252,0.126892,0.072287,8.040533,5.602732,-0.359591,-0.002367,-0.031307,0.076435,-99.479996,-239.819992,-124.860001,-75.738,-53.852,92.871,,walk
2025-10-28T17:45:07.058347,19151,382,8.099884,5.703288,-0.268151,-0.187252,0.126892,0.072287,8.287136,5.576396,-0.340437,-0.002367,-0.031307,0.076435,-99.479996,-239.819992,-124.860001,-74.771,-54.820,92.692,,walk
2025-10-28T17:45:07.108666,19201,383,8.099884,5.703288,-0.268151,-0.187252,0.126892,0.072287,8.287136,5.576396,-0.340437,-0.002367,-0.031307,0.076435,-99.479996,-239.819992,-124.860001,-74.771,-54.820,92.692,,walk
2025-10-28T17:45:07.158556,19251,384,8.099884,5.703288,-0.268151,0.029840,0.141015,0.057053,8.070044,5.562273,-0.325204,0.100869,0.163559,-0.098884,-100.739998,-240.179993,-124.500000,-75.175,-54.820,92.692,,walk
2025-10-28T17:45:07.208901,19301,385,8.099884,5.703288,-0.268151,0.029840,0.141015,0.057053,8.070044,5.562273,-0.325204,0.100869,0.163559,-0.098884,-100.739998,-240.179993,-124.500000,-75.175,-54.820,92.692,,walk
2025-10-28T17:45:07.258330,19351,386,8.008904,5.521328,-0.272939,0.029840,0.141015,0.057053,7.979063,5.380314,-0.329992,0.100869,0.163559,-0.098884,-100.739998,-240.179993,-124.500000,-74.695,-55.385,92.830,,walk
2025-10-28T17:45:07.308869,19401,387,8.008904,5.521328,-0.272939,0.029840,0.141015,0.057053,7.979063,5.380314,-0.329992,0.100869,0.163559,-0.098884,-100.739998,-240.179993,-124.500000,-74.695,-55.385,92.830,,walk
2025-10-28T17:45:07.358667,19451,388,8.008904,5.521328,-0.272939,-0.027097,-0.093397,-0.012867,8.036000,5.614725,-0.260072,0.021457,0.043219,-0.007865,-99.720001,-241.439987,-124.439995,-74.452,-55.385,92.830,,walk
2025-10-28T17:45:07.408250,19501,389,7.858069,5.674557,-0.213084,-0.027097,-0.093397,-0.012867,7.885166,5.767954,-0.200217,0.021457,0.043219,-0.007865,-99.720001,-241.439987,-124.439995,-75.373,-54.147,92.150,,walk
2025-10-28T17:45:07.458229,19551,390,7.858069,5.674557,-0.213084,-0.027097,-0.093397,-0.012867,7.885166,5.767954,-0.200217,0.021457,0.043219,-0.007865,-99.720001,-241.439987,-124.439995,-75.373,-54.147,92.150,,walk
2025-10-28T17:45:07.508292,19601,391,7.858069,5.674557,-0.213084,-0.143247,0.008198,-0.009959,8.001316,5.666359,-0.203125,0.128358,0.180663,0.031230,-99.720001,-241.439987,-124.439995,-75.373,-54.147,92.150,,walk
2025-10-28T17:45:07.562167,19655,392,7.858069,5.674557,-0.213084,-0.143247,0.008198,-0.009959,8.001316,5.666359,-0.203125,0.128358,0.180663,0.031230,-99.599998,-242.159988,-123.479996,-75.552,-54.147,92.150,,walk
2025-10-28T17:45:07.608763,19701,393,7.783849,5.899612,-0.119710,-0.143247,0.008198,-0.009959,7.927095,5.891414,-0.109752,0.128358,0.180663,0.031230,-99.599998,-242.159988,-123.479996,-76.468,-52.835,91.162,,walk
2025-10-28T17:45:07.659608,19752,394,7.783849,5.899612,-0.119710,-0.143247,0.008198,-0.009959,7.927095,5.891414,-0.109752,0.128358,0.180663,0.031230,-99.599998,-242.159988,-123.479996,-76.468,-52.835,91.162,,walk
2025-10-28T17:45:07.710593,19803,395,7.783849,5.899612,-0.119710,-0.150787,0.137047,-0.053144,7.934636,5.762566,-0.066566,0.270690,0.284510,0.028787,-98.459999,-241.080002,-125.820000,-75.642,-52.835,91.162,,walk
2025-10-28T17:45:07.758596,19851,396,7.783849,5.899612,-0.119710,-0.150787,0.137047,-0.053144,7.934636,5.762566,-0.066566,0.270690,0.284510,0.028787,-98.459999,-241.080002,-125.820000,-75.642,-52.835,91.162,,walk
2025-10-28T17:45:07.808419,19901,397,7.726388,5.746383,0.067038,-0.150787,0.137047,-0.053144,7.877175,5.609336,0.120182,0.270690,0.284510,0.028787,-98.459999,-241.080002,-125.820000,-74.414,-53.359,89.332,,walk
2025-10-28T17:45:07.858339,19951,398,7.726388,5.746383,0.067038,-0.212787,-0.006484,0.276700,7.939175,5.752867,-0.209663,0.331776,0.046884,0.070326,-98.459999,-241.080002,-125.820000,-74.414,-53.359,89.332,,walk
2025-10-28T17:45:07.908956,20001,399,7.726388,5.746383,0.067038,-0.212787,-0.006484,0.276700,7.939175,5.752867,-0.209663,0.331776,0.046884,0.070326,-98.459999,-241.080002,-125.820000,-74.414,-53.359,89.332,,walk
2025-10-28T17:45:07.958812,20051,400,8.609849,5.126285,-0.804452,-0.212787,-0.006484,0.276700,8.822636,5.132769,-1.081152,0.331776,0.046884,0.070326,-99.180000,-245.099991,-125.939995,-73.067,-58.923,98.919,,walk
2025-10-28T17:45:08.008469,20101,401,8.609849,5.126285,-0.804452,-0.212787,-0.006484,0.276700,8.822636,5.132769,-1.081152,0.331776,0.046884,0.070326,-99.180000,-245.099991,-125.939995,-73.067,-58.923,98.919,,walk
2025-10-28T17:45:08.058582,20151,402,8.609849,5.126285,-0.804452,0.484025,-0.321774,-0.126434,8.125824,5.448059,-0.678017,0.291459,0.010843,0.136299,-99.180000,-245.099991,-125.939995,-73.067,-58.923,98.919,,walk
2025-10-28T17:45:08.108110,20200,403,8.609849,5.126285,-0.804452,0.484025,-0.321774,-0.126434,8.125824,5.448059,-0.678017,0.291459,0.010843,0.136299,-101.759995,-247.559998,-128.099991,-73.233,-58.923,98.919,,walk
2025-10-28T17:45:08.158426,20251,404,7.496545,5.499781,-1.244985,0.484025,-0.321774,-0.126434,7.012520,5.821554,-1.118550,0.291459,0.010843,0.136299,-101.759995,-247.559998,-128.099991,-78.852,-53.049,102.755,,walk
2025-10-28T17:45:08.208485,20301,405,7.496545,5.499781,-1.244985,0.484025,-0.321774,-0.126434,7.012520,5.821554,-1.118550,0.291459,0.010843,0.136299,-101.759995,-247.559998,-128.099991,-78.852,-53.049,102.755,,walk
2025-10-28T17:45:08.258833,20351,406,7.496545,5.499781,-1.244985,-0.650112,0.082320,-0.571846,8.146657,5.417460,-0.673139,0.232205,0.481209,-0.083612,-101.759995,-247.559998,-128.099991,-78.852,-53.049,102.755,,walk
2025-10-28T17:45:08.308262,20401,407,7.470209,6.342540,-0.964863,-0.650112,0.082320,-0.571846,8.120321,6.260220,-0.393017,0.232205,0.481209,-0.083612,-100.500000,-250.199997,-131.039993,-80.247,-49.344,98.650,,walk
2025-10-28T17:45:08.359337,20452,408,7.470209,6.342540,-0.964863,-0.650112,0.082320,-0.571846,8.120321,6.260220,-0.393017,0.232205,0.481209,-0.083612,-100.500000,-250.199997,-131.039993,-80.247,-49.344,98.650,,walk
2025-10-28T17:45:08.408318,20501,409,7.470209,6.342540,-0.964863,-0.494725,0.647663,-0.418734,7.964934,5.694877,-0.546129,0.099647,0.001069,0.020235,-100.500000,-250.199997,-131.039993,-80.247,-49.344,98.650,,walk
2025-10-28T17:45:08.458863,20551,410,7.470209,6.342540,-0.964863,-0.494725,0.647663,-0.418734,7.964934,5.694877,-0.546129,0.099647,0.001069,0.020235,-100.500000,-250.199997,-131.039993,-80.247,-49.344,98.650,,walk
2025-10-28T17:45:08.508349,20601,411,7.115867,3.335123,0.368707,-0.494725,0.647663,-0.418734,7.610592,2.687460,0.787441,0.099647,0.001069,0.020235,-100.500000,-250.199997,-131.039993,-57.422,-64.754,83.691,,walk
2025-10-28T17:45:08.558375,20651,412,7.115867,3.335123,0.368707,-0.494725,0.647663,-0.418734,7.610592,2.687460,0.787441,0.099647,0.001069,0.020235,-99.900002,-250.319992,-133.500000,-56.687,-64.754,83.691,,walk
2025-10-28T17:45:08.608897,20701,413,7.115867,3.335123,0.368707,-1.080961,-2.048115,0.314006,8.196828,5.383238,0.054701,-0.115988,0.407905,0.111865,-99.900002,-250.319992,-133.500000,-56.687,-64.754,83.691,,walk
2025-10-28T17:45:08.658569,20751,414,7.115867,3.335123,0.368707,-1.080961,-2.048115,0.314006,8.196828,5.383238,0.054701,-0.115988,0.407905,0.111865,-99.900002,-250.319992,-133.500000,-56.687,-64.754,83.691,,walk
2025-10-28T17:45:08.708745,20801,415,8.427889,5.116708,1.505953,-1.080961,-2.048115,0.314006,9.508850,7.164823,1.191947,-0.115988,0.407905,0.111865,-99.900002,-250.319992,-133.500000,-52.995,-57.672,73.600,,walk
2025-10-28T17:45:08.758219,20851,416,8.427889,5.116708,1.505953,0.178099,-0.143284,0.840043,8.249790,5.259993,0.665910,-0.230220,0.106138,0.037950,-97.439995,-249.899994,-136.500000,-51.131,-57.672,73.600,,walk
2025-10-28T17:45:08.808294,20901,417,8.427889,5.116708,1.505953,0.178099,-0.143284,0.840043,8.249790,5.259993,0.665910,-0.230220,0.106138,0.037950,-97.439995,-249.899994,-136.500000,-51.131,-57.672,73.600,,walk
2025-10-28T17:45:08.858496,20951,418,8.217199,5.150227,1.853112,0.178099,-0.143284,0.840043,8.039101,5.293511,1.013069,-0.230220,0.106138,0.037950,-97.439995,-249.899994,-136.500000,-46.551,-56.332,70.211,,walk
2025-10-28T17:45:08.908773,21001,419,8.217199,5.150227,1.853112,0.178099,-0.143284,0.840043,8.039101,5.293511,1.013069,-0.230220,0.106138,0.037950,-97.439995,-249.899994,-136.500000,-46.551,-56.332,70.211,,walk
2025-10-28T17:45:08.958768,21051,420,8.217199,5.150227,1.853112,-0.065399,-0.009659,0.881377,8.282598,5.159886,0.971736,-0.466014,-0.319024,0.014126,-98.279999,-247.500000,-137.339996,-47.294,-56.332,70.211,,walk
2025-10-28T17:45:09.009663,21102,421,8.217199,5.150227,1.853112,-0.065399,-0.009659,0.881377,8.282598,5.159886,0.971736,-0.466014,-0.319024,0.014126,-98.279999,-247.500000,-137.339996,-47.294,-56.332,70.211,,walk
2025-10-28T17:45:09.058811,21151,422,8.360851,5.164592,1.944092,-0.065399,-0.009659,0.881377,8.426250,5.174252,1.062715,-0.466014,-0.319024,0.014126,-98.279999,-247.500000,-137.339996,-44.949,-56.574,69.372,,walk
2025-10-28T17:45:09.108549,21201,423,8.360851,5.164592,1.944092,-0.065399,-0.009659,0.881377,8.426250,5.174252,1.062715,-0.466014,-0.319024,0.014126,-98.279999,-247.500000,-137.339996,-44.949,-56.574,69.372,,walk
2025-10-28T17:45:09.158549,21251,424,8.360851,5.164592,1.944092,-0.019173,0.139135,1.113474,8.380024,5.025457,0.830617,-0.644997,-0.413708,-0.180129,-102.299995,-243.899994,-134.399994,-48.581,-56.574,69.372,,walk
2025-10-28T17:45:09.208456,21301,425,7.922713,4.867412,1.043872,-0.019173,0.139135,1.113474,7.941885,4.728277,-0.069602,-0.644997,-0.413708,-0.180129,-102.299995,-243.899994,-134.399994,-60.150,-57.858,77.896,,walk
2025-10-28T17:45:09.258251,21351,426,7.922713,4.867412,1.043872,-0.019173,0.139135,1.113474,7.941885,4.728277,-0.069602,-0.644997,-0.413708,-0.180129,-102.299995,-243.899994,-134.399994,-60.150,-57.858,77.896,,walk
2025-10-28T17:45:09.308986,21401,427,7.922713,4.867412,1.043872,-0.210925,-0.540380,0.166456,8.133637,5.407792,0.877416,-0.306578,-0.334296,-0.360334,-102.299995,-243.899994,-134.399994,-60.150,-57.858,77.896,,walk
2025-10-28T17:45:09.358586,21451,428,7.922713,4.867412,1.043872,-0.210925,-0.540380,0.166456,8.133637,5.407792,0.877416,-0.306578,-0.334296,-0.360334,-102.360001,-241.139999,-133.619995,-60.492,-57.858,77.896,,walk
2025-10-28T17:45:09.409208,21502,429,8.121431,5.066430,0.299275,-0.210925,-0.540380,0.166456,8.332356,5.606810,0.132819,-0.306578,-0.334296,-0.360334,-102.360001,-241.139999,-133.619995,-67.574,-57.998,86.619,,walk
2025-10-28T17:45:09.458905,21551,430,8.121431,5.066430,0.299275,-0.210925,-0.540380,0.166456,8.332356,5.606810,0.132819,-0.306578,-0.334296,-0.360334,-102.360001,-241.139999,-133.619995,-67.574,-57.998,86.619,,walk
2025-10-28T17:45:09.508851,21601,431,8.121431,5.066430,0.299275,0.186996,-0.674945,-0.202117,7.934436,5.741375,0.501392,-0.008476,-0.369115,-0.111101,-102.360001,-241.139999,-133.619995,-67.574,-57.998,86.619,,walk
2025-10-28T17:45:09.558807,21651,432,8.121431,5.066430,0.299275,0.186996,-0.674945,-0.202117,7.934436,5.741375,0.501392,-0.008476,-0.369115,-0.111101,-105.899994,-240.539993,-131.459991,-69.105,-57.998,86.619,,walk
2025-10-28T17:45:09.608450,21701,433,8.320150,4.946720,-0.538695,0.186996,-0.674945,-0.202117,8.133155,5.621665,-0.336578,-0.008476,-0.369115,-0.111101,-105.899994,-240.539993,-131.459991,-72.324,-59.118,96.215,,walk
2025-10-28T17:45:09.658324,21751,434,8.320150,4.946720,-0.538695,0.378719,-0.805217,-0.676418,7.941432,5.751937,0.137723,-0.090943,-0.234114,-0.099495,-105.899994,-240.539993,-131.459991,-72.324,-59.118,96.215,,walk
2025-10-28T17:45:09.709035,21801,435,8.320150,4.946720,-0.538695,0.378719,-0.805217,-0.676418,7.941432,5.751937,0.137723,-0.090943,-0.234114,-0.099495,-105.899994,-240.539993,-131.459991,-72.324,-59.118,96.215,,walk
2025-10-28T17:45:09.758304,21851,436,7.776666,5.851728,-0.004788,0.378719,-0.805217,-0.676418,7.397947,6.656946,0.671630,-0.090943,-0.234114,-0.099495,-106.799995,-241.379990,-129.599991,-76.467,-53.040,90.047,,walk
2025-10-28T17:45:09.808784,21901,437,7.776666,5.851728,-0.004788,0.378719,-0.805217,-0.676418,7.397947,6.656946,0.671630,-0.090943,-0.234114,-0.099495,-106.799995,-241.379990,-129.599991,-76.467,-53.040,90.047,,walk
2025-10-28T17:45:09.859480,21952,438,7.776666,5.851728,-0.004788,-0.198675,0.153571,0.303122,7.975341,5.698158,-0.307910,0.016570,-0.083230,-0.043906,-106.799995,-241.379990,-129.599991,-76.467,-53.040,90.047,,walk
2025-10-28T17:45:09.908724,22001,439,7.776666,5.851728,-0.004788,-0.198675,0.153571,0.303122,7.975341,5.698158,-0.307910,0.016570,-0.083230,-0.043906,-106.799995,-241.379990,-129.599991,-76.467,-53.040,90.047,,walk
2025-10-28T17:45:09.958622,22051,440,7.850887,5.923554,-0.033519,-0.198675,0.153571,0.303122,8.049562,5.769984,-0.336641,0.016570,-0.083230,-0.043906,-106.739998,-240.720001,-129.059998,-76.735,-52.965,90.324,,walk
2025-10-28T17:45:10.008916,22101,441,7.850887,5.923554,-0.033519,-0.198675,0.153571,0.303122,8.049562,5.769984,-0.336641,0.016570,-0.083230,-0.043906,-106.739998,-240.720001,-129.059998,-76.735,-52.965,90.324,,walk
2025-10-28T17:45:10.058831,22151,442,7.850887,5.923554,-0.033519,-0.010119,0.061515,0.072191,7.861006,5.862040,-0.105710,0.014126,0.007178,-0.025580,-106.739998,-240.720001,-129.059998,-76.735,-52.965,90.324,,walk
2025-10-28T17:45:10.108419,22201,443,7.843704,5.825392,0.047884,-0.010119,0.061515,0.072191,7.853823,5.763877,-0.024307,0.014126,0.007178,-0.025580,-106.739998,-240.720001,-129.059998,-76.030,-53.398,89.529,,walk
2025-10-28T17:45:10.158489,22251,444,7.843704,5.825392,0.047884,-0.010119,0.061515,0.072191,7.853823,5.763877,-0.024307,0.014126,0.007178,-0.025580,-106.379997,-241.799988,-128.220001,-76.119,-53.398,89.529,,walk
2025-10-28T17:45:10.209009,22301,445,7.843704,5.825392,0.047884,0.020569,-0.086130,0.198060,7.823135,5.911522,-0.150176,-0.006032,-0.086896,-0.026191,-106.379997,-241.799988,-128.220001,-76.119,-53.398,89.529,,walk
2025-10-28T17:45:10.259369,22352,446,7.843704,5.825392,0.047884,0.020569,-0.086130,0.198060,7.823135,5.911522,-0.150176,-0.006032,-0.086896,-0.026191,-106.379997,-241.799988,-128.220001,-76.119,-53.398,89.529,,walk
2025-10-28T17:45:10.308894,22401,447,7.759907,5.959467,-0.009577,0.020569,-0.086130,0.198060,7.739338,6.045598,-0.207637,-0.006032,-0.086896,-0.026191,-106.379997,-241.799988,-128.220001,-77.235,-52.476,90.092,,walk
2025-10-28T17:45:10.359227,22452,448,7.759907,5.959467,-0.009577,0.020569,-0.086130,0.198060,7.739338,6.045598,-0.207637,-0.006032,-0.086896,-0.026191,-106.619995,-241.799988,-127.619995,-77.430,-52.476,90.092,,walk
2025-10-28T17:45:10.409194,22502,449,7.759907,5.959467,-0.009577,-0.028982,0.003479,0.161612,7.788889,5.955989,-0.171189,-0.044517,-0.071624,-0.026802,-106.619995,-241.799988,-127.619995,-77.430,-52.476,90.092,,walk
2025-10-28T17:45:10.458332,22551,450,7.759907,5.959467,-0.009577,-0.028982,0.003479,0.161612,7.788889,5.955989,-0.171189,-0.044517,-0.071624,-0.026802,-106.619995,-241.799988,-127.619995,-77.430,-52.476,90.092,,walk
2025-10-28T17:45:10.508913,22601,451,7.609072,6.024111,-0.045490,-0.028982,0.003479,0.161612,7.638054,6.020632,-0.207102,-0.044517,-0.071624,-0.026802,-106.619995,-241.799988,-127.619995,-78.373,-51.631,90.433,,walk
2025-10-28T17:45:10.558759,22651,452,7.609072,6.024111,-0.045490,-0.129323,0.001447,0.076247,7.738395,6.022664,-0.121737,-0.038408,-0.036805,-0.018250,-106.979996,-240.539993,-127.559998,-78.479,-51.631,90.433,,walk
2025-10-28T17:45:10.609216,22702,453,7.609072,6.024111,-0.045490,-0.129323,0.001447,0.076247,7.738395,6.022664,-0.121737,-0.038408,-0.036805,-0.018250,-106.979996,-240.539993,-127.559998,-78.479,-51.631,90.433,,walk
2025-10-28T17:45:10.658735,22751,454,7.618649,6.160580,-0.074220,-0.129323,0.001447,0.076247,7.747972,6.159133,-0.150468,-0.038408,-0.036805,-0.018250,-106.979996,-240.539993,-127.559998,-79.134,-51.038,90.690,,walk
2025-10-28T17:45:10.708322,22801,455,7.618649,6.160580,-0.074220,-0.129323,0.001447,0.076247,7.747972,6.159133,-0.150468,-0.038408,-0.036805,-0.018250,-106.979996,-240.539993,-127.559998,-79.134,-51.038,90.690,,walk
2025-10-28T17:45:10.758828,22851,456,7.618649,6.160580,-0.074220,-0.077451,0.083823,0.039907,7.696100,6.076757,-0.114127,0.002520,-0.009927,-0.023747,-106.860001,-241.019989,-127.320000,-79.156,-51.038,90.690,,walk
2025-10-28T17:45:10.808410,22901,457,7.618649,6.160580,-0.074220,-0.077451,0.083823,0.039907,7.696100,6.076757,-0.114127,0.002520,-0.009927,-0.023747,-106.860001,-241.019989,-127.320000,-79.156,-51.038,90.690,,walk
2025-10-28T17:45:10.859865,22952,458,7.707234,6.088754,-0.244209,-0.077451,0.083823,0.039907,7.784685,6.004931,-0.284116,0.002520,-0.009927,-0.023747,-106.860001,-241.019989,-127.320000,-78.967,-51.669,92.297,,walk
2025-10-28T17:45:10.908415,23001,459,7.707234,6.088754,-0.244209,-0.077451,0.083823,0.039907,7.784685,6.004931,-0.284116,0.002520,-0.009927,-0.023747,-106.860001,-241.019989,-127.320000,-78.967,-51.669,92.297,,walk
2025-10-28T17:45:10.959220,23052,460,7.707234,6.088754,-0.244209,0.030066,-0.011113,-0.093464,7.677169,6.099867,-0.150744,0.009850,-0.030085,-0.015195,-108.180000,-240.959991,-127.259995,-79.305,-51.669,92.297,,walk
2025-10-28T17:45:11.008586,23101,461,7.683292,6.067206,-0.256180,0.030066,-0.011113,-0.093464,7.653227,6.078320,-0.162715,0.009850,-0.030085,-0.015195,-108.180000,-240.959991,-127.259995,-79.325,-51.678,92.418,,walk
2025-10-28T17:45:11.058815,23151,462,7.683292,6.067206,-0.256180,0.030066,-0.011113,-0.093464,7.653227,6.078320,-0.162715,0.009850,-0.030085,-0.015195,-108.180000,-240.959991,-127.259995,-79.325,-51.678,92.418,,walk
2025-10-28T17:45:11.108222,23201,463,7.683292,6.067206,-0.256180,0.009234,-0.035722,-0.074653,7.674058,6.102928,-0.181526,-0.001756,-0.011148,-0.001145,-108.180000,-240.959991,-127.259995,-79.325,-51.678,92.418,,walk
2025-10-28T17:45:11.158388,23251,464,7.683292,6.067206,-0.256180,0.009234,-0.035722,-0.074653,7.674058,6.102928,-0.181526,-0.001756,-0.011148,-0.001145,-108.119995,-241.439987,-126.959999,-79.376,-51.678,92.418,,walk
2025-10-28T17:45:11.208996,23301,465,7.642591,6.064812,-0.248997,0.009234,-0.035722,-0.074653,7.633357,6.100534,-0.174344,-0.001756,-0.011148,-0.001145,-108.119995,-241.439987,-126.959999,-79.488,-51.543,92.351,,walk
2025-10-28T17:45:11.258259,23351,466,7.642591,6.064812,-0.248997,0.009234,-0.035722,-0.074653,7.633357,6.100534,-0.174344,-0.001756,-0.011148,-0.001145,-108.119995,-241.439987,-126.959999,-79.488,-51.543,92.351,,walk
2025-10-28T17:45:11.308963,23401,467,7.642591,6.064812,-0.248997,-0.029431,-0.040461,-0.059626,7.672022,6.105273,-0.189370,-0.021304,-0.028253,-0.004200,-108.119995,-241.439987,-126.959999,-79.488,-51.543,92.351,,walk
2025-10-28T17:45:11.359086,23451,468,7.642591,6.064812,-0.248997,-0.029431,-0.040461,-0.059626,7.672022,6.105273,-0.189370,-0.021304,-0.028253,-0.004200,-107.939995,-241.739990,-126.719994,-79.495,-51.543,92.351,,walk
2025-10-28T17:45:11.409550,23502,469,7.656956,6.105514,-0.186748,-0.029431,-0.040461,-0.059626,7.686388,6.145974,-0.127121,-0.021304,-0.028253,-0.004200,-107.939995,-241.739990,-126.719994,-79.466,-51.419,91.752,,walk
2025-10-28T17:45:11.458189,23551,470,7.656956,6.105514,-0.186748,-0.004915,-0.011862,0.021447,7.661871,6.117376,-0.208195,-0.032910,-0.038026,-0.012752,-107.939995,-241.739990,-126.719994,-79.466,-51.419,91.752,,walk
2025-10-28T17:45:11.508664,23601,471,7.656956,6.105514,-0.186748,-0.004915,-0.011862,0.021447,7.661871,6.117376,-0.208195,-0.032910,-0.038026,-0.012752,-107.939995,-241.739990,-126.719994,-79.466,-51.419,91.752,,walk
2025-10-28T17:45:11.559019,23651,472,7.604284,6.174945,-0.196325,-0.004915,-0.011862,0.021447,7.609199,6.186808,-0.217772,-0.032910,-0.038026,-0.012752,-107.759995,-241.080002,-126.479996,-79.978,-50.908,91.821,,walk
2025-10-28T17:45:11.609177,23702,473,7.604284,6.174945,-0.196325,-0.004915,-0.011862,0.021447,7.609199,6.186808,-0.217772,-0.032910,-0.038026,-0.012752,-107.759995,-241.080002,-126.479996,-79.978,-50.908,91.821,,walk
2025-10-28T17:45:11.658364,23751,474,7.604284,6.174945,-0.196325,-0.036860,0.031938,0.019200,7.641144,6.143008,-0.215524,-0.030467,-0.025809,-0.018860,-107.759995,-241.080002,-126.479996,-79.978,-50.908,91.821,,walk
2025-10-28T17:45:11.708406,23801,475,7.604284,6.174945,-0.196325,-0.036860,0.031938,0.019200,7.641144,6.143008,-0.215524,-0.030467,-0.025809,-0.018860,-107.759995,-241.080002,-126.479996,-79.978,-50.908,91.821,,walk
2025-10-28T17:45:11.759841,23852,476,7.542035,6.227618,-0.126893,-0.036860,0.031938,0.019200,7.578895,6.195680,-0.146092,-0.030467,-0.025809,-0.018860,-107.759995,-241.500000,-126.059998,-80.361,-50.447,91.167,,walk
2025-10-28T17:45:11.808413,23901,477,7.542035,6.227618,-0.126893,-0.036860,0.031938,0.019200,7.578895,6.195680,-0.146092,-0.030467,-0.025809,-0.018860,-107.759995,-241.500000,-126.059998,-80.361,-50.447,91.167,,walk
2025-10-28T17:45:11.858502,23951,478,7.542035,6.227618,-0.126893,-0.065681,0.041774,0.040887,7.607716,6.185844,-0.167779,-0.015195,0.062766,-0.018250,-107.759995,-241.500000,-126.059998,-80.361,-50.447,91.167,,walk
2025-10-28T17:45:11.908741,24001,479,7.455843,6.208464,-0.098162,-0.065681,0.041774,0.040887,7.521525,6.166690,-0.139049,-0.015195,0.062766,-0.018250,-107.759995,-241.500000,-126.059998,-80.528,-50.212,90.906,,walk
2025-10-28T17:45:11.958685,24051,480,7.455843,6.208464,-0.098162,-0.065681,0.041774,0.040887,7.521525,6.166690,-0.139049,-0.015195,0.062766,-0.018250,-107.220001,-241.259995,-125.219994,-80.575,-50.212,90.906,,walk
2025-10-28T17:45:12.008862,24101,481,7.455843,6.208464,-0.098162,-0.130389,-0.005445,-0.017609,7.586233,6.213909,-0.080553,0.017791,0.070708,-0.006643,-107.220001,-241.259995,-125.219994,-80.575,-50.212,90.906,,walk
2025-10-28T17:45:12.058439,24151,482,7.455843,6.208464,-0.098162,-0.130389,-0.005445,-0.017609,7.586233,6.213909,-0.080553,0.017791,0.070708,-0.006643,-107.220001,-241.259995,-125.219994,-80.575,-50.212,90.906,,walk
2025-10-28T17:45:12.108843,24201,483,7.587524,6.182128,-0.110133,-0.130389,-0.005445,-0.017609,7.717914,6.187573,-0.092524,0.017791,0.070708,-0.006643,-107.220001,-241.259995,-125.219994,-80.006,-50.823,91.021,,walk
2025-10-28T17:45:12.159010,24251,484,7.587524,6.182128,-0.110133,-0.130389,-0.005445,-0.017609,7.717914,6.187573,-0.092524,0.017791,0.070708,-0.006643,-107.459999,-241.860001,-126.180000,-79.857,-50.823,91.021,,walk
2025-10-28T17:45:12.208359,24301,485,7.587524,6.182128,-0.110133,0.003342,-0.034527,-0.051645,7.584183,6.216655,-0.058488,0.027565,0.015730,0.002520,-107.459999,-241.860001,-126.180000,-79.857,-50.823,91.021,,walk
2025-10-28T17:45:12.258794,24351,486,7.587524,6.182128,-0.110133,0.003342,-0.034527,-0.051645,7.584183,6.216655,-0.058488,0.027565,0.015730,0.002520,-107.459999,-241.860001,-126.180000,-79.857,-50.823,91.021,,walk
2025-10-28T17:45:12.309045,24401,487,7.589919,6.174945,-0.090980,0.003342,-0.034527,-0.051645,7.586577,6.209473,-0.039335,0.027565,0.015730,0.002520,-107.459999,-241.860001,-126.180000,-79.771,-50.866,90.844,,walk
2025-10-28T17:45:12.359205,24452,488,7.589919,6.174945,-0.090980,0.003054,-0.038219,-0.013161,7.586865,6.213164,-0.077819,-0.017028,-0.019090,0.000076,-106.979996,-241.559998,-126.959999,-79.476,-50.866,90.844,,walk
2025-10-28T17:45:12.409427,24502,489,7.589919,6.174945,-0.090980,0.003054,-0.038219,-0.013161,7.586865,6.213164,-0.077819,-0.017028,-0.019090,0.000076,-106.979996,-241.559998,-126.959999,-79.476,-50.866,90.844,,walk
2025-10-28T17:45:12.458151,24551,490,7.508516,6.174945,-0.095768,0.003054,-0.038219,-0.013161,7.505462,6.213164,-0.082608,-0.017028,-0.019090,0.000076,-106.979996,-241.559998,-126.959999,-79.783,-50.563,90.889,,walk
2025-10-28T17:45:12.508926,24601,491,7.508516,6.174945,-0.095768,0.003054,-0.038219,-0.013161,7.505462,6.213164,-0.082608,-0.017028,-0.019090,0.000076,-106.979996,-241.559998,-126.959999,-79.783,-50.563,90.889,,walk
2025-10-28T17:45:12.559227,24652,492,7.508516,6.174945,-0.095768,-0.081865,-0.033913,-0.017626,7.590381,6.208858,-0.078142,-0.028634,-0.042913,0.009239,-107.399994,-242.039993,-127.019997,-79.879,-50.563,90.889,,walk
2025-10-28T17:45:12.608273,24701,493,7.508516,6.174945,-0.095768,-0.081865,-0.033913,-0.017626,7.590381,6.208858,-0.078142,-0.028634,-0.042913,0.009239,-107.399994,-242.039993,-127.019997,-79.879,-50.563,90.889,,walk
2025-10-28T17:45:12.658846,24751,494,7.546823,6.227618,-0.148441,-0.081865,-0.033913,-0.017626,7.628688,6.261530,-0.130814,-0.028634,-0.042913,0.009239,-107.399994,-242.039993,-127.019997,-80.092,-50.463,91.365,,walk
2025-10-28T17:45:12.709019,24801,495,7.546823,6.227618,-0.148441,-0.081865,-0.033913,-0.017626,7.628688,6.261530,-0.130814,-0.028634,-0.042913,0.009239,-107.399994,-242.039993,-127.019997,-80.092,-50.463,91.365,,walk
2025-10-28T17:45:12.758930,24851,496,7.546823,6.227618,-0.148441,-0.046329,0.022499,-0.045617,7.593152,6.205119,-0.102824,-0.045128,-0.053298,-0.009697,-108.299995,-241.199997,-126.239998,-80.488,-50.463,91.365,,walk
2025-10-28T17:45:12.808254,24901,497,7.486968,6.043264,-0.009577,-0.046329,0.022499,-0.045617,7.533297,6.020765,0.036040,-0.045128,-0.053298,-0.009697,-108.299995,-241.199997,-126.239998,-79.559,-51.090,90.091,,walk
2025-10-28T17:45:12.859363,24952,498,7.486968,6.043264,-0.009577,-0.046329,0.022499,-0.045617,7.533297,6.020765,0.036040,-0.045128,-0.053298,-0.009697,-108.299995,-241.199997,-126.239998,-79.559,-51.090,90.091,,walk
2025-10-28T17:45:12.908713,25001,499,7.486968,6.043264,-0.009577,-0.077116,-0.197342,0.087992,7.564084,6.240607,-0.097569,-0.035965,-0.051465,0.022678,-108.299995,-241.199997,-126.239998,-79.559,-51.090,90.091,,walk
2025-10-28T17:45:12.958364,25051,500,7.486968,6.043264,-0.009577,-0.077116,-0.197342,0.087992,7.564084,6.240607,-0.097569,-0.035965,-0.051465,0.022678,-107.519997,-241.559998,-125.699997,-79.476,-51.090,90.091,,walk
2025-10-28T17:45:13.008477,25101,501,7.561188,6.232406,-0.155623,-0.077116,-0.197342,0.087992,7.638304,6.429749,-0.243615,-0.035965,-0.051465,0.022678,-107.519997,-241.559998,-125.699997,-80.395,-50.494,91.430,,walk
2025-10-28T17:45:13.058742,25151,502,7.561188,6.232406,-0.155623,-0.077116,-0.197342,0.087992,7.638304,6.429749,-0.243615,-0.035965,-0.051465,0.022678,-107.519997,-241.559998,-125.699997,-80.395,-50.494,91.430,,walk
2025-10-28T17:45:13.108638,25201,503,7.561188,6.232406,-0.155623,-0.008171,-0.000691,-0.002824,7.569359,6.233097,-0.152799,-0.036576,-0.079565,-0.010308,-107.519997,-241.559998,-125.699997,-80.395,-50.494,91.430,,walk
2025-10-28T17:45:13.158576,25251,504,7.561188,6.232406,-0.155623,-0.008171,-0.000691,-0.002824,7.569359,6.233097,-0.152799,-0.036576,-0.079565,-0.010308,-108.479996,-241.799988,-126.299995,-80.506,-50.494,91.430,,walk
2025-10-28T17:45:13.208288,25301,505,7.546823,6.117485,-0.093374,-0.008171,-0.000691,-0.002824,7.554994,6.118176,-0.090550,-0.036576,-0.079565,-0.010308,-108.479996,-241.799988,-126.299995,-79.912,-50.968,90.874,,walk
2025-10-28T17:45:13.258714,25351,506,7.546823,6.117485,-0.093374,-0.018167,-0.120571,0.072439,7.564990,6.238056,-0.165812,-0.012752,0.023671,0.011683,-108.479996,-241.799988,-126.299995,-79.912,-50.968,90.874,,walk
2025-10-28T17:45:13.309385,25402,507,7.546823,6.117485,-0.093374,-0.018167,-0.120571,0.072439,7.564990,6.238056,-0.165812,-0.012752,0.023671,0.011683,-108.479996,-241.799988,-126.299995,-79.912,-50.968,90.874,,walk
2025-10-28T17:45:13.359563,25452,508,7.460632,6.261137,-0.124498,-0.018167,-0.120571,0.072439,7.478799,6.381708,-0.196937,-0.012752,0.023671,0.011683,-107.879997,-241.739990,-125.339996,-80.987,-49.990,91.139,,walk
2025-10-28T17:45:13.409267,25502,509,7.460632,6.261137,-0.124498,-0.018167,-0.120571,0.072439,7.478799,6.381708,-0.196937,-0.012752,0.023671,0.011683,-107.879997,-241.739990,-125.339996,-80.987,-49.990,91.139,,walk
2025-10-28T17:45:13.458119,25551,510,7.460632,6.261137,-0.124498,-0.114546,0.034084,-0.021512,7.575178,6.227053,-0.102987,0.028176,0.060323,0.012905,-107.879997,-241.739990,-125.339996,-80.987,-49.990,91.139,,walk
2025-10-28T17:45:13.509069,25601,511,7.460632,6.261137,-0.124498,-0.114546,0.034084,-0.021512,7.575178,6.227053,-0.102987,0.028176,0.060323,0.012905,-107.879997,-241.739990,-125.339996,-80.987,-49.990,91.139,,walk
2025-10-28T17:45:13.558482,25651,512,7.604284,6.167763,-0.143652,-0.114546,0.034084,-0.021512,7.718830,6.133679,-0.122141,0.028176,0.060323,0.012905,-108.720001,-241.439987,-126.239998,-80.118,-50.947,91.334,,walk
2025-10-28T17:45:13.608963,25701,513,7.604284,6.167763,-0.143652,-0.114546,0.034084,-0.021512,7.718830,6.133679,-0.122141,0.028176,0.060323,0.012905,-108.720001,-241.439987,-126.239998,-80.118,-50.947,91.334,,walk
2025-10-28T17:45:13.659008,25751,514,7.604284,6.167763,-0.143652,0.013411,-0.040463,-0.062124,7.590873,6.208226,-0.081528,0.028176,0.035888,0.010461,-108.720001,-241.439987,-126.239998,-80.118,-50.947,91.334,,walk
2025-10-28T17:45:13.708448,25801,515,7.633014,6.110302,-0.126893,0.013411,-0.040463,-0.062124,7.619604,6.150765,-0.064769,0.028176,0.035888,0.010461,-108.720001,-241.439987,-126.239998,-79.725,-51.316,91.190,,walk
2025-10-28T17:45:13.758110,25850,516,7.633014,6.110302,-0.126893,0.013411,-0.040463,-0.062124,7.619604,6.150765,-0.064769,0.028176,0.035888,0.010461,-108.599998,-241.679993,-125.159996,-79.933,-51.316,91.190,,walk
2025-10-28T17:45:13.808472,25901,517,7.633014,6.110302,-0.126893,0.023292,-0.074675,-0.035668,7.609722,6.184977,-0.091225,0.004963,-0.003207,0.000076,-108.599998,-241.679993,-125.159996,-79.933,-51.316,91.190,,walk
2025-10-28T17:45:13.858232,25951,518,7.633014,6.110302,-0.126893,0.023292,-0.074675,-0.035668,7.609722,6.184977,-0.091225,0.004963,-0.003207,0.000076,-108.599998,-241.679993,-125.159996,-79.933,-51.316,91.190,,walk
2025-10-28T17:45:13.909169,26002,519,7.534852,6.160580,-0.040701,0.023292,-0.074675,-0.035668,7.511560,6.235255,-0.005034,0.004963,-0.003207,0.000076,-108.599998,-241.679993,-125.159996,-80.311,-50.730,90.379,,walk
2025-10-28T17:45:13.958172,26051,520,7.534852,6.160580,-0.040701,0.023292,-0.074675,-0.035668,7.511560,6.235255,-0.005034,0.004963,-0.003207,0.000076,-107.820000,-241.319992,-125.879997,-79.947,-50.730,90.379,,walk
2025-10-28T17:45:14.009651,26102,521,7.534852,6.160580,-0.040701,-0.072390,-0.027333,0.057361,7.607242,6.187913,-0.098063,0.005574,-0.005040,-0.001145,-107.820000,-241.319992,-125.879997,-79.947,-50.730,90.379,,walk
2025-10-28T17:45:14.058839,26151,522,7.534852,6.160580,-0.040701,-0.072390,-0.027333,0.057361,7.607242,6.187913,-0.098063,0.005574,-0.005040,-0.001145,-107.820000,-241.319992,-125.879997,-79.947,-50.730,90.379,,walk
2025-10-28T17:45:14.109425,26202,523,7.585130,6.170157,-0.050278,-0.072390,-0.027333,0.057361,7.657520,6.197490,-0.107640,0.005574,-0.005040,-0.001145,-107.820000,-241.319992,-125.879997,-79.828,-50.872,90.467,,walk
2025-10-28T17:45:14.158522,26251,524,7.585130,6.170157,-0.050278,-0.020108,-0.020689,0.012819,7.605238,6.190846,-0.063097,-0.001756,0.019395,0.004352,-107.639999,-240.959991,-125.820000,-79.795,-50.872,90.467,,walk
2025-10-28T17:45:14.209347,26302,525,7.585130,6.170157,-0.050278,-0.020108,-0.020689,0.012819,7.605238,6.190846,-0.063097,-0.001756,0.019395,0.004352,-107.639999,-240.959991,-125.820000,-79.795,-50.872,90.467,,walk
2025-10-28T17:45:14.258749,26351,526,7.604284,6.158186,-0.090980,-0.020108,-0.020689,0.012819,7.624392,6.178875,-0.103799,-0.001756,0.019395,0.004352,-107.639999,-240.959991,-125.820000,-79.770,-50.995,90.846,,walk
2025-10-28T17:45:14.308338,26401,527,7.604284,6.158186,-0.090980,-0.020108,-0.020689,0.012819,7.624392,6.178875,-0.103799,-0.001756,0.019395,0.004352,-107.639999,-240.959991,-125.820000,-79.770,-50.995,90.846,,walk
2025-10-28T17:45:14.358555,26451,528,7.604284,6.158186,-0.090980,-0.001991,-0.031398,-0.031315,7.606275,6.189584,-0.059665,-0.002367,0.002291,-0.000535,-108.599998,-241.799988,-126.419998,-79.883,-50.995,90.846,,walk
2025-10-28T17:45:14.408745,26501,529,7.604284,6.158186,-0.090980,-0.001991,-0.031398,-0.031315,7.606275,6.189584,-0.059665,-0.002367,0.002291,-0.000535,-108.599998,-241.799988,-126.419998,-79.883,-50.995,90.846,,walk
2025-10-28T17:45:14.458306,26551,530,7.589919,6.177340,-0.064643,-0.001991,-0.031398,-0.031315,7.591909,6.208737,-0.033329,-0.002367,0.002291,-0.000535,-108.599998,-241.799988,-126.419998,-79.958,-50.857,90.600,,walk
2025-10-28T17:45:14.508124,26601,531,7.589919,6.177340,-0.064643,-0.001991,-0.031398,-0.031315,7.591909,6.208737,-0.033329,-0.002367,0.002291,-0.000535,-108.599998,-241.799988,-126.419998,-79.958,-50.857,90.600,,walk
2025-10-28T17:45:14.558157,26651,532,7.589919,6.177340,-0.064643,-0.020327,-0.007327,-0.002116,7.610245,6.184667,-0.062527,-0.002978,-0.020311,0.003742,-108.779999,-241.979996,-125.699997,-80.165,-50.857,90.600,,walk
2025-10-28T17:45:14.608430,26701,533,7.635408,6.198887,-0.052672,-0.020327,-0.007327,-0.002116,7.655735,6.206214,-0.050556,-0.002978,-0.020311,0.003742,-108.779999,-241.979996,-125.699997,-80.067,-50.927,90.487,,walk
2025-10-28T17:45:14.659486,26752,534,7.635408,6.198887,-0.052672,-0.020327,-0.007327,-0.002116,7.655735,6.206214,-0.050556,-0.002978,-0.020311,0.003742,-108.779999,-241.979996,-125.699997,-80.067,-50.927,90.487,,walk
2025-10-28T17:45:14.708975,26801,535,7.635408,6.198887,-0.052672,0.024836,0.014842,0.028663,7.610573,6.184045,-0.081335,-0.007865,-0.011759,0.003742,-108.779999,-241.979996,-125.699997,-80.067,-50.927,90.487,,walk
2025-10-28T17:45:14.758135,26851,536,7.635408,6.198887,-0.052672,0.024836,0.014842,0.028663,7.610573,6.184045,-0.081335,-0.007865,-0.011759,0.003742,-108.119995,-241.679993,-125.639999,-79.911,-50.927,90.487,,walk
2025-10-28T17:45:14.809030,26901,537,7.554006,6.203676,-0.076614,0.024836,0.014842,0.028663,7.529170,6.188834,-0.105277,-0.007865,-0.011759,0.003742,-108.119995,-241.679993,-125.639999,-80.284,-50.604,90.708,,walk
2025-10-28T17:45:14.858803,26951,538,7.554006,6.203676,-0.076614,0.024836,0.014842,0.028663,7.529170,6.188834,-0.105277,-0.007865,-0.011759,0.003742,-108.119995,-241.679993,-125.639999,-80.284,-50.604,90.708,,walk
2025-10-28T17:45:14.908397,27001,539,7.554006,6.203676,-0.076614,-0.066504,0.031741,-0.006135,7.620510,6.171935,-0.070480,0.012294,0.022449,0.006796,-108.119995,-241.679993,-125.639999,-80.284,-50.604,90.708,,walk
2025-10-28T17:45:14.958758,27051,540,7.554006,6.203676,-0.076614,-0.066504,0.031741,-0.006135,7.620510,6.171935,-0.070480,0.012294,0.022449,0.006796,-109.019997,-241.319992,-125.219994,-80.607,-50.604,90.708,,walk
2025-10-28T17:45:15.009683,27102,541,7.592313,6.172551,-0.064643,-0.066504,0.031741,-0.006135,7.658817,6.140810,-0.058509,0.012294,0.022449,0.006796,-109.019997,-241.319992,-125.219994,-80.303,-50.887,90.600,,walk
2025-10-28T17:45:15.058133,27151,542,7.592313,6.172551,-0.064643,-0.029856,0.002580,-0.000264,7.622169,6.169971,-0.064379,0.024511,0.022449,-0.002978,-109.019997,-241.319992,-125.219994,-80.303,-50.887,90.600,,walk
2025-10-28T17:45:15.109307,27202,543,7.592313,6.172551,-0.064643,-0.029856,0.002580,-0.000264,7.622169,6.169971,-0.064379,0.024511,0.022449,-0.002978,-109.019997,-241.319992,-125.219994,-80.303,-50.887,90.600,,walk
2025-10-28T17:45:15.158992,27251,544,7.671321,6.112696,-0.055067,-0.029856,0.002580,-0.000264,7.701178,6.110116,-0.054802,0.024511,0.022449,-0.002978,-108.299995,-241.559998,-126.119995,-79.341,-51.450,90.516,,walk
2025-10-28T17:45:15.209638,27302,545,7.671321,6.112696,-0.055067,-0.029856,0.002580,-0.000264,7.701178,6.110116,-0.054802,0.024511,0.022449,-0.002978,-108.299995,-241.559998,-126.119995,-79.341,-51.450,90.516,,walk
2025-10-28T17:45:15.258802,27351,546,7.671321,6.112696,-0.055067,0.042060,-0.048603,-0.000898,7.629261,6.161299,-0.054169,-0.011530,-0.006261,-0.010919,-108.299995,-241.559998,-126.119995,-79.341,-51.450,90.516,,walk
2025-10-28T17:45:15.308435,27401,547,7.671321,6.112696,-0.055067,0.042060,-0.048603,-0.000898,7.629261,6.161299,-0.054169,-0.011530,-0.006261,-0.010919,-108.299995,-241.559998,-126.119995,-79.341,-51.450,90.516,,walk
2025-10-28T17:45:15.358242,27451,548,7.613861,6.165369,-0.055067,0.042060,-0.048603,-0.000898,7.571801,6.213972,-0.054169,-0.011530,-0.006261,-0.010919,-107.579994,-241.799988,-126.000000,-79.625,-51.000,90.512,,walk
2025-10-28T17:45:15.408925,27501,549,7.613861,6.165369,-0.055067,0.042060,-0.048603,-0.000898,7.571801,6.213972,-0.054169,-0.011530,-0.006261,-0.010919,-107.579994,-241.799988,-126.000000,-79.625,-51.000,90.512,,walk
2025-10-28T17:45:15.458318,27551,550,7.613861,6.165369,-0.055067,-0.007451,-0.005920,-0.026055,7.621312,6.171288,-0.029012,-0.034132,0.021838,-0.015195,-107.579994,-241.799988,-126.000000,-79.625,-51.000,90.512,,walk
2025-10-28T17:45:15.508638,27601,551,7.539640,6.167763,-0.067038,-0.007451,-0.005920,-0.026055,7.547091,6.173683,-0.040983,-0.034132,0.021838,-0.015195,-107.579994,-241.799988,-126.000000,-79.936,-50.714,90.623,,walk
2025-10-28T17:45:15.559516,27652,552,7.539640,6.167763,-0.067038,-0.007451,-0.005920,-0.026055,7.547091,6.173683,-0.040983,-0.034132,0.021838,-0.015195,-108.299995,-241.199997,-125.579994,-80.214,-50.714,90.623,,walk
2025-10-28T17:45:15.608760,27701,553,7.539640,6.167763,-0.067038,-0.075257,-0.011374,-0.026180,7.614897,6.179136,-0.040858,-0.000535,-0.030696,-0.004200,-108.299995,-241.199997,-125.579994,-80.214,-50.714,90.623,,walk
2025-10-28T17:45:15.658352,27751,554,7.539640,6.167763,-0.067038,-0.075257,-0.011374,-0.026180,7.614897,6.179136,-0.040858,-0.000535,-0.030696,-0.004200,-108.299995,-241.199997,-125.579994,-80.214,-50.714,90.623,,walk
2025-10-28T17:45:15.708751,27801,555,7.582736,6.184522,-0.023942,-0.075257,-0.011374,-0.026180,7.657993,6.195896,0.002238,-0.000535,-0.030696,-0.004200,-108.299995,-241.199997,-125.579994,-80.031,-50.799,90.222,,walk
2025-10-28T17:45:15.759637,27852,556,7.582736,6.184522,-0.023942,-0.075257,-0.011374,-0.026180,7.657993,6.195896,0.002238,-0.000535,-0.030696,-0.004200,-108.119995,-241.619995,-126.000000,-79.890,-50.799,90.222,,walk
2025-10-28T17:45:15.809352,27902,557,7.582736,6.184522,-0.023942,-0.024633,-0.003783,0.029971,7.607369,6.188305,-0.053913,-0.009697,-0.003818,0.001909,-108.119995,-241.619995,-126.000000,-79.890,-50.799,90.222,,walk
2025-10-28T17:45:15.858321,27951,558,7.582736,6.184522,-0.023942,-0.024633,-0.003783,0.029971,7.607369,6.188305,-0.053913,-0.009697,-0.003818,0.001909,-108.119995,-241.619995,-126.000000,-79.890,-50.799,90.222,,walk
2025-10-28T17:45:15.908732,28001,559,7.585130,6.136638,-0.035913,-0.024633,-0.003783,0.029971,7.609764,6.140421,-0.065884,-0.009697,-0.003818,0.001909,-108.119995,-241.619995,-126.000000,-79.694,-51.025,90.335,,walk
2025-10-28T17:45:15.958910,28051,560,7.585130,6.136638,-0.035913,-0.019715,-0.054789,0.014014,7.604845,6.191427,-0.049928,-0.000535,0.005956,-0.014584,-109.379997,-241.559998,-125.399994,-80.154,-51.025,90.335,,walk
2025-10-28T17:45:16.008952,28101,561,7.585130,6.136638,-0.035913,-0.019715,-0.054789,0.014014,7.604845,6.191427,-0.049928,-0.000535,0.005956,-0.014584,-109.379997,-241.559998,-125.399994,-80.154,-51.025,90.335,,walk
2025-10-28T17:45:16.059109,28151,562,7.728782,6.239589,-0.009577,-0.019715,-0.054789,0.014014,7.748497,6.294378,-0.023591,-0.000535,0.005956,-0.014584,-109.379997,-241.559998,-125.399994,-80.033,-51.085,90.088,,walk
