timestamp_iso,session_ms,sample_idx,acc_x,acc_y,acc_z,useracc_x,useracc_y,useracc_z,gravity_x,gravity_y,gravity_z,gyro_x,gyro_y,gyro_z,mag_x,mag_y,mag_z,yaw_deg,pitch_deg,roll_deg,pressure_hpa,label
2025-11-01T19:09:50.163467,51,0,0.464475,4.137180,9.945813,-0.012032,0.595091,0.813622,0.476507,3.542089,9.132192,0.116675,-0.020235,0.017410,23.100000,-4.500000,-38.459999,-22.450,-2.469,22.586,,walk
2025-11-01T19:09:50.213361,101,1,0.464475,4.137180,9.945813,-0.012032,0.595091,0.813622,0.476507,3.542089,9.132192,0.116675,-0.020235,0.017410,23.100000,-4.500000,-38.459999,-22.450,-2.469,22.586,,walk
2025-11-01T19:09:50.263360,151,2,0.687136,2.681506,8.425495,0.732592,0.809157,0.725035,-0.045456,1.872349,7.700460,-0.938289,0.849637,-0.266643,23.100000,-4.500000,-38.459999,-14.647,-4.444,17.654,,walk
2025-11-01T19:09:50.313361,201,3,0.687136,2.681506,8.425495,0.732592,0.809157,0.725035,-0.045456,1.872349,7.700460,-0.938289,0.849637,-0.266643,23.100000,-4.500000,-38.459999,-14.647,-4.444,17.654,,walk
2025-11-01T19:09:50.363457,251,4,0.687136,2.681506,8.425495,0.732592,0.809157,0.725035,-0.045456,1.872349,7.700460,-0.938289,0.849637,-0.266643,27.359999,-1.020000,-34.259998,-16.285,-4.444,17.654,,walk
2025-11-01T19:09:50.413444,301,5,0.687136,2.681506,8.425495,0.732592,0.809157,0.725035,-0.045456,1.872349,7.700460,-0.938289,0.849637,-0.266643,27.359999,-1.020000,-34.259998,-16.285,-4.444,17.654,,walk
2025-11-01T19:09:50.463486,351,6,-1.132457,2.681506,8.557177,0.920161,0.181967,-0.700763,-2.052618,2.499539,9.257939,-0.263894,0.298637,-0.360105,27.359999,-1.020000,-34.259998,-24.086,7.197,17.399,,walk
2025-11-01T19:09:50.513433,401,7,-1.132457,2.681506,8.557177,0.920161,0.181967,-0.700763,-2.052618,2.499539,9.257939,-0.263894,0.298637,-0.360105,27.359999,-1.020000,-34.259998,-24.086,7.197,17.399,,walk
2025-11-01T19:09:50.563479,451,8,-1.132457,2.681506,8.557177,0.920161,0.181967,-0.700763,-2.052618,2.499539,9.257939,-0.263894,0.298637,-0.360105,33.119999,2.220000,-29.580000,-22.599,7.197,17.399,,walk
2025-11-01T19:09:50.613438,501,9,-1.132457,2.681506,8.557177,1.921117,0.980145,-0.605325,-3.053575,1.701361,9.162501,0.445932,0.555200,0.383929,33.119999,2.220000,-29.580000,-22.599,7.197,17.399,,walk
2025-11-01T19:09:50.663480,551,10,-2.011129,2.861071,11.820473,1.921117,0.980145,-0.605325,-3.932247,1.880926,12.425797,0.445932,0.555200,0.383929,33.119999,2.220000,-29.580000,-20.286,9.390,13.606,,walk
2025-11-01T19:09:50.713463,601,11,-2.011129,2.861071,11.820473,1.921117,0.980145,-0.605325,-3.932247,1.880926,12.425797,0.445932,0.555200,0.383929,33.119999,2.220000,-29.580000,-20.286,9.390,13.606,,walk
2025-11-01T19:09:50.763751,651,12,-2.011129,2.861071,11.820473,1.921117,0.980145,-0.605325,-3.932247,1.880926,12.425797,0.445932,0.555200,0.383929,36.119999,-1.920000,-26.340000,-10.191,9.390,13.606,,walk
2025-11-01T19:09:50.814126,701,13,-3.023877,2.722207,9.253889,-0.364633,-1.168100,0.653641,-2.659244,3.890308,8.600248,1.300532,-1.124068,-1.049161,36.119999,-1.920000,-26.340000,-17.338,17.405,16.392,,walk
2025-11-01T19:09:50.864679,752,14,-3.023877,2.722207,9.253889,-0.364633,-1.168100,0.653641,-2.659244,3.890308,8.600248,1.300532,-1.124068,-1.049161,36.119999,-1.920000,-26.340000,-17.338,17.405,16.392,,walk
2025-11-01T19:09:50.913694,801,15,-3.023877,2.722207,9.253889,-0.364633,-1.168100,0.653641,-2.659244,3.890308,8.600248,1.300532,-1.124068,-1.049161,36.119999,-1.920000,-26.340000,-17.338,17.405,16.392,,walk
2025-11-01T19:09:50.963961,851,16,-3.023877,2.722207,9.253889,-0.364633,-1.168100,0.653641,-2.659244,3.890308,8.600248,1.300532,-1.124068,-1.049161,22.799999,-3.480000,-39.660000,-43.128,17.405,16.392,,walk
2025-11-01T19:09:51.013605,901,17,-0.064643,1.980005,8.597878,-3.877722,-2.361795,0.911573,3.813078,4.341799,7.686304,0.099571,-1.731879,1.059546,22.799999,-3.480000,-39.660000,-13.842,0.420,12.969,,walk
2025-11-01T19:09:51.063588,951,18,-0.064643,1.980005,8.597878,-3.877722,-2.361795,0.911573,3.813078,4.341799,7.686304,0.099571,-1.731879,1.059546,22.799999,-3.480000,-39.660000,-13.842,0.420,12.969,,walk
2025-11-01T19:09:51.113948,1001,19,-0.064643,1.980005,8.597878,-3.877722,-2.361795,0.911573,3.813078,4.341799,7.686304,0.099571,-1.731879,1.059546,22.799999,-3.480000,-39.660000,-13.842,0.420,12.969,,walk
2025-11-01T19:09:51.163423,1051,20,4.915596,0.782904,6.950667,-3.940329,-2.275510,0.658105,8.855924,3.058414,6.292562,0.622472,-2.196137,1.937359,11.580000,-5.220000,-43.799999,3.173,-35.098,6.427,,walk
2025-11-01T19:09:51.213605,1101,21,4.915596,0.782904,6.950667,-3.940329,-2.275510,0.658105,8.855924,3.058414,6.292562,0.622472,-2.196137,1.937359,11.580000,-5.220000,-43.799999,3.173,-35.098,6.427,,walk
2025-11-01T19:09:51.264416,1152,22,4.915596,0.782904,6.950667,-3.940329,-2.275510,0.658105,8.855924,3.058414,6.292562,0.622472,-2.196137,1.937359,11.580000,-5.220000,-43.799999,3.173,-35.098,6.427,,walk
2025-11-01T19:09:51.313768,1201,23,4.915596,0.782904,6.950667,-3.940329,-2.275510,0.658105,8.855924,3.058414,6.292562,0.622472,-2.196137,1.937359,11.580000,-5.220000,-43.799999,3.173,-35.098,6.427,,walk
2025-11-01T19:09:51.364747,1252,24,8.569147,-1.865083,4.165911,-3.620810,-0.743158,2.371238,12.189957,-1.121926,1.794673,1.279763,-1.663462,5.276959,-9.420000,-9.719999,-50.039997,28.840,-61.958,-24.118,,walk
2025-11-01T19:09:51.414227,1301,25,8.569147,-1.865083,4.165911,-3.620810,-0.743158,2.371238,12.189957,-1.121926,1.794673,1.279763,-1.663462,5.276959,-9.420000,-9.719999,-50.039997,28.840,-61.958,-24.118,,walk
2025-11-01T19:09:51.464159,1351,26,8.569147,-1.865083,4.165911,-3.620810,-0.743158,2.371238,12.189957,-1.121926,1.794673,1.279763,-1.663462,5.276959,-9.420000,-9.719999,-50.039997,28.840,-61.958,-24.118,,walk
2025-11-01T19:09:51.513677,1401,27,8.569147,-1.865083,4.165911,-3.620810,-0.743158,2.371238,12.189957,-1.121926,1.794673,1.279763,-1.663462,5.276959,-9.420000,-9.719999,-50.039997,28.840,-61.958,-24.118,,walk
2025-11-01T19:09:51.563808,1451,28,15.275605,-6.490980,6.476615,8.496795,-1.247861,1.709267,6.778811,-5.243119,4.767348,3.062268,1.124527,4.951979,-28.559999,5.280000,-51.840000,47.524,-59.025,-45.063,,walk
2025-11-01T19:09:51.614004,1501,29,15.275605,-6.490980,6.476615,8.496795,-1.247861,1.709267,6.778811,-5.243119,4.767348,3.062268,1.124527,4.951979,-28.559999,5.280000,-51.840000,47.524,-59.025,-45.063,,walk
2025-11-01T19:09:51.663609,1551,30,15.275605,-6.490980,6.476615,8.496795,-1.247861,1.709267,6.778811,-5.243119,4.767348,3.062268,1.124527,4.951979,-28.559999,5.280000,-51.840000,47.524,-59.025,-45.063,,walk
2025-11-01T19:09:51.713685,1601,31,8.092701,-3.253720,2.810793,10.165963,-1.323166,-0.107882,-2.073262,-1.930554,2.918675,0.257174,-1.271287,-1.156062,-28.559999,5.280000,-51.840000,46.432,-62.018,-49.177,,walk
2025-11-01T19:09:51.763791,1651,32,8.092701,-3.253720,2.810793,10.165963,-1.323166,-0.107882,-2.073262,-1.930554,2.918675,0.257174,-1.271287,-1.156062,-29.639999,-21.119999,-41.279999,64.963,-62.018,-49.177,,walk
2025-11-01T19:09:51.813543,1701,33,8.092701,-3.253720,2.810793,10.165963,-1.323166,-0.107882,-2.073262,-1.930554,2.918675,0.257174,-1.271287,-1.156062,-29.639999,-21.119999,-41.279999,64.963,-62.018,-49.177,,walk
2025-11-01T19:09:51.863578,1751,34,8.092701,-3.253720,2.810793,10.165963,-1.323166,-0.107882,-2.073262,-1.930554,2.918675,0.257174,-1.271287,-1.156062,-29.639999,-21.119999,-41.279999,64.963,-62.018,-49.177,,walk
2025-11-01T19:09:51.913951,1801,35,2.516306,-3.883395,5.662586,-4.975748,-1.335160,-0.129292,7.492054,-2.548235,5.791878,0.273668,-0.824744,-0.898277,-29.639999,-21.119999,-41.279999,106.808,-20.127,-34.442,,walk
2025-11-01T19:09:51.963734,1851,36,2.516306,-3.883395,5.662586,-4.975748,-1.335160,-0.129292,7.492054,-2.548235,5.791878,0.273668,-0.824744,-0.898277,-38.700001,-48.539997,-25.799999,114.143,-20.127,-34.442,,walk
2025-11-01T19:09:52.013909,1901,37,2.516306,-3.883395,5.662586,-4.975748,-1.335160,-0.129292,7.492054,-2.548235,5.791878,0.273668,-0.824744,-0.898277,-38.700001,-48.539997,-25.799999,114.143,-20.127,-34.442,,walk
2025-11-01T19:09:52.063615,1951,38,7.920319,-3.021482,5.767931,-6.063123,-1.849475,1.369948,13.983441,-1.172007,4.397983,-1.276708,-1.821066,-0.611171,-38.700001,-48.539997,-25.799999,94.123,-50.576,-27.647,,walk
2025-11-01T19:09:52.113576,2001,39,7.920319,-3.021482,5.767931,-6.063123,-1.849475,1.369948,13.983441,-1.172007,4.397983,-1.276708,-1.821066,-0.611171,-38.700001,-48.539997,-25.799999,94.123,-50.576,-27.647,,walk
2025-11-01T19:09:52.163673,2051,40,7.920319,-3.021482,5.767931,-6.063123,-1.849475,1.369948,13.983441,-1.172007,4.397983,-1.276708,-1.821066,-0.611171,-68.820000,-60.660000,-48.840000,93.686,-50.576,-27.647,,walk
2025-11-01T19:09:52.213763,2101,41,7.920319,-3.021482,5.767931,-6.063123,-1.849475,1.369948,13.983441,-1.172007,4.397983,-1.276708,-1.821066,-0.611171,-68.820000,-60.660000,-48.840000,93.686,-50.576,-27.647,,walk
2025-11-01T19:09:52.264713,2152,42,11.396699,-1.786075,4.853047,2.801842,0.524241,0.734672,8.594857,-2.310316,4.118375,-0.476475,1.829465,-0.283747,-68.820000,-60.660000,-48.840000,79.381,-65.594,-20.205,,walk
2025-11-01T19:09:52.314431,2202,43,11.396699,-1.786075,4.853047,2.801842,0.524241,0.734672,8.594857,-2.310316,4.118375,-0.476475,1.829465,-0.283747,-68.820000,-60.660000,-48.840000,79.381,-65.594,-20.205,,walk
2025-11-01T19:09:52.363756,2251,44,11.396699,-1.786075,4.853047,2.801842,0.524241,0.734672,8.594857,-2.310316,4.118375,-0.476475,1.829465,-0.283747,24.840000,-135.000000,-10.620000,80.598,-65.594,-20.205,,walk
2025-11-01T19:09:52.413703,2301,45,11.396699,-1.786075,4.853047,2.990752,-1.562048,-0.192744,8.405947,-0.224026,5.045791,-0.301767,-1.445384,-1.368033,24.840000,-135.000000,-10.620000,80.598,-65.594,-20.205,,walk
2025-11-01T19:09:52.463831,2351,46,7.690475,-0.320823,3.684676,2.990752,-1.562048,-0.192744,4.699723,1.241225,3.877421,-0.301767,-1.445384,-1.368033,24.840000,-135.000000,-10.620000,81.303,-64.315,-4.976,,walk
2025-11-01T19:09:52.513625,2401,47,7.690475,-0.320823,3.684676,2.990752,-1.562048,-0.192744,4.699723,1.241225,3.877421,-0.301767,-1.445384,-1.368033,24.840000,-135.000000,-10.620000,81.303,-64.315,-4.976,,walk
2025-11-01T19:09:52.563775,2451,48,7.690475,-0.320823,3.684676,2.990752,-1.562048,-0.192744,4.699723,1.241225,3.877421,-0.301767,-1.445384,-1.368033,96.000000,-17.039999,-5.040000,11.823,-64.315,-4.976,,walk
2025-11-01T19:09:52.613637,2501,49,8.011298,1.039083,2.070984,-1.395597,-3.141786,1.306513,9.406895,4.180870,0.764471,0.273668,-2.262721,-2.556166,96.000000,-17.039999,-5.040000,60.614,-73.869,26.644,,walk
2025-11-01T19:09:52.664220,2551,50,8.011298,1.039083,2.070984,-1.395597,-3.141786,1.306513,9.406895,4.180870,0.764471,0.273668,-2.262721,-2.556166,96.000000,-17.039999,-5.040000,60.614,-73.869,26.644,,walk
2025-11-01T19:09:52.713938,2601,51,8.011298,1.039083,2.070984,-1.395597,-3.141786,1.306513,9.406895,4.180870,0.764471,0.273668,-2.262721,-2.556166,96.000000,-17.039999,-5.040000,60.614,-73.869,26.644,,walk
2025-11-01T19:09:52.765194,2652,52,8.011298,1.039083,2.070984,-1.395597,-3.141786,1.306513,9.406895,4.180870,0.764471,0.273668,-2.262721,-2.556166,-5.640000,5.940000,-45.000000,-17.762,-73.869,26.644,,walk
2025-11-01T19:09:52.814332,2702,53,5.317821,3.203442,1.115698,1.317413,-5.814471,4.166371,4.000408,9.017913,-3.050673,-0.514349,0.043295,-1.436450,-5.640000,5.940000,-45.000000,-40.009,-57.467,70.798,,walk
2025-11-01T19:09:52.863724,2751,54,5.317821,3.203442,1.115698,1.317413,-5.814471,4.166371,4.000408,9.017913,-3.050673,-0.514349,0.043295,-1.436450,-5.640000,5.940000,-45.000000,-40.009,-57.467,70.798,,walk
2025-11-01T19:09:52.913721,2801,55,5.317821,3.203442,1.115698,1.317413,-5.814471,4.166371,4.000408,9.017913,-3.050673,-0.514349,0.043295,-1.436450,-5.640000,5.940000,-45.000000,-40.009,-57.467,70.798,,walk
2025-11-01T19:09:52.966185,2853,56,4.977845,8.442254,-2.477999,1.317413,-5.814471,4.166371,3.660432,14.256725,-6.644370,-0.507018,1.450729,0.488998,-14.219999,-10.139999,-34.139999,-83.358,-29.500,106.358,,walk
2025-11-01T19:09:53.013757,2901,57,4.977845,8.442254,-2.477999,-0.653626,0.725149,-0.263744,5.631471,7.717105,-2.214255,-0.507018,1.450729,0.488998,-14.219999,-10.139999,-34.139999,-83.358,-29.500,106.358,,walk
2025-11-01T19:09:53.064432,2952,58,4.977845,8.442254,-2.477999,-0.653626,0.725149,-0.263744,5.631471,7.717105,-2.214255,-0.507018,1.450729,0.488998,-14.219999,-10.139999,-34.139999,-83.358,-29.500,106.358,,walk
2025-11-01T19:09:53.113727,3001,59,4.977845,8.442254,-2.477999,-0.653626,0.725149,-0.263744,5.631471,7.717105,-2.214255,-0.507018,1.450729,0.488998,-14.219999,-10.139999,-34.139999,-83.358,-29.500,106.358,,walk
2025-11-01T19:09:53.163594,3051,60,5.492598,7.063194,1.256956,-1.488700,1.560353,-5.122484,6.981298,5.502841,6.379440,0.152105,0.451353,0.049786,-1.740000,3.480000,-32.040001,-55.871,-37.438,79.909,,walk
2025-11-01T19:09:53.213608,3101,61,5.492598,7.063194,1.256956,-1.488700,1.560353,-5.122484,6.981298,5.502841,6.379440,0.152105,0.451353,0.049786,-1.740000,3.480000,-32.040001,-55.871,-37.438,79.909,,walk
2025-11-01T19:09:53.263916,3151,62,5.492598,7.063194,1.256956,-1.488700,1.560353,-5.122484,6.981298,5.502841,6.379440,0.152105,0.451353,0.049786,-1.740000,3.480000,-32.040001,-55.871,-37.438,79.909,,walk
2025-11-01T19:09:53.315781,3203,63,5.492598,7.063194,1.256956,-1.488700,1.560353,-5.122484,6.981298,5.502841,6.379440,0.152105,0.451353,0.049786,-1.740000,3.480000,-32.040001,-55.871,-37.438,79.909,,walk
2025-11-01T19:09:53.364507,3252,64,10.501268,7.561188,4.469975,3.799402,0.587962,2.848510,6.701867,6.973226,1.621465,1.764790,-2.378786,-0.184787,-9.900000,19.500000,-29.279999,-63.728,-50.090,59.410,,walk
2025-11-01T19:09:53.413983,3301,65,10.501268,7.561188,4.469975,3.799402,0.587962,2.848510,6.701867,6.973226,1.621465,1.764790,-2.378786,-0.184787,-9.900000,19.500000,-29.279999,-63.728,-50.090,59.410,,walk
2025-11-01T19:09:53.465170,3352,66,10.501268,7.561188,4.469975,3.799402,0.587962,2.848510,6.701867,6.973226,1.621465,1.764790,-2.378786,-0.184787,-9.900000,19.500000,-29.279999,-63.728,-50.090,59.410,,walk
2025-11-01T19:09:53.514404,3402,67,6.143821,5.578789,-1.970428,3.566046,0.728867,5.649777,2.577775,4.849923,-7.620205,-0.593150,0.930271,-0.104153,-9.900000,19.500000,-29.279999,-53.725,-46.080,109.453,,walk
2025-11-01T19:09:53.565084,3452,68,6.143821,5.578789,-1.970428,3.566046,0.728867,5.649777,2.577775,4.849923,-7.620205,-0.593150,0.930271,-0.104153,-19.260000,19.799999,-14.940000,-99.080,-46.080,109.453,,walk
2025-11-01T19:09:53.613641,3501,69,6.143821,5.578789,-1.970428,3.566046,0.728867,5.649777,2.577775,4.849923,-7.620205,-0.593150,0.930271,-0.104153,-19.260000,19.799999,-14.940000,-99.080,-46.080,109.453,,walk
2025-11-01T19:09:53.664075,3551,70,6.143821,5.578789,-1.970428,3.566046,0.728867,5.649777,2.577775,4.849923,-7.620205,-0.593150,0.930271,-0.104153,-19.260000,19.799999,-14.940000,-99.080,-46.080,109.453,,walk
2025-11-01T19:09:53.713797,3601,71,6.756736,8.502110,-1.285686,0.910252,0.776193,-2.801965,5.846485,7.725916,1.516279,0.648739,-0.166232,-1.462106,-19.260000,19.799999,-14.940000,-106.150,-38.160,98.599,,walk
2025-11-01T19:09:53.763808,3651,72,6.756736,8.502110,-1.285686,0.910252,0.776193,-2.801965,5.846485,7.725916,1.516279,0.648739,-0.166232,-1.462106,3.840000,18.660000,-19.740000,-33.865,-38.160,98.599,,walk
2025-11-01T19:09:53.813814,3701,73,6.756736,8.502110,-1.285686,0.910252,0.776193,-2.801965,5.846485,7.725916,1.516279,0.648739,-0.166232,-1.462106,3.840000,18.660000,-19.740000,-33.865,-38.160,98.599,,walk
2025-11-01T19:09:53.864089,3751,74,4.127604,7.747936,2.161964,3.209623,-0.624446,-1.827779,0.917981,8.372382,3.989743,-0.306654,-0.203494,-0.029016,3.840000,18.660000,-19.740000,-58.452,-27.164,74.409,,walk
2025-11-01T19:09:53.913790,3801,75,4.127604,7.747936,2.161964,3.209623,-0.624446,-1.827779,0.917981,8.372382,3.989743,-0.306654,-0.203494,-0.029016,3.840000,18.660000,-19.740000,-58.452,-27.164,74.409,,walk
2025-11-01T19:09:53.963757,3851,76,4.127604,7.747936,2.161964,3.209623,-0.624446,-1.827779,0.917981,8.372382,3.989743,-0.306654,-0.203494,-0.029016,-0.300000,3.300000,-20.400000,-63.943,-27.164,74.409,,walk
2025-11-01T19:09:54.013940,3901,77,4.127604,7.747936,2.161964,3.209623,-0.624446,-1.827779,0.917981,8.372382,3.989743,-0.306654,-0.203494,-0.029016,-0.300000,3.300000,-20.400000,-63.943,-27.164,74.409,,walk
2025-11-01T19:09:54.064296,3952,78,4.994604,8.954614,1.592144,0.255364,0.394186,0.937438,4.739240,8.560428,0.654706,-0.127671,0.171577,0.269086,-0.300000,3.300000,-20.400000,-62.458,-28.774,79.918,,walk
2025-11-01T19:09:54.113771,4001,79,4.994604,8.954614,1.592144,0.255364,0.394186,0.937438,4.739240,8.560428,0.654706,-0.127671,0.171577,0.269086,-0.300000,3.300000,-20.400000,-62.458,-28.774,79.918,,walk
2025-11-01T19:09:54.164257,4051,80,4.994604,8.954614,1.592144,0.255364,0.394186,0.937438,4.739240,8.560428,0.654706,-0.127671,0.171577,0.269086,-13.139999,11.219999,-25.080000,-88.935,-28.774,79.918,,walk
2025-11-01T19:09:54.213512,4101,81,4.994604,8.954614,1.592144,-0.405706,0.782353,2.061974,5.400311,8.172260,-0.469830,0.344528,-0.708680,0.355829,-13.139999,11.219999,-25.080000,-88.935,-28.774,79.918,,walk
2025-11-01T19:09:54.263789,4151,82,4.577713,8.526052,-0.131681,-0.405706,0.782353,2.061974,4.983420,7.743698,-2.193655,0.344528,-0.708680,0.355829,-13.139999,11.219999,-25.080000,-89.419,-28.229,90.885,,walk
2025-11-01T19:09:54.313773,4201,83,4.577713,8.526052,-0.131681,-0.405706,0.782353,2.061974,4.983420,7.743698,-2.193655,0.344528,-0.708680,0.355829,-13.139999,11.219999,-25.080000,-89.419,-28.229,90.885,,walk
2025-11-01T19:09:54.364292,4251,84,4.577713,8.526052,-0.131681,-0.405706,0.782353,2.061974,4.983420,7.743698,-2.193655,0.344528,-0.708680,0.355829,-18.900000,8.520000,-17.100000,-109.736,-28.229,90.885,,walk
2025-11-01T19:09:54.413628,4301,85,7.111078,10.218752,-2.528277,1.462782,2.378569,-0.855485,5.648296,7.840183,-1.672792,1.094671,-0.219988,0.582460,-18.900000,8.520000,-17.100000,-105.486,-34.040,103.897,,walk
2025-11-01T19:09:54.463949,4351,86,7.111078,10.218752,-2.528277,1.462782,2.378569,-0.855485,5.648296,7.840183,-1.672792,1.094671,-0.219988,0.582460,-18.900000,8.520000,-17.100000,-105.486,-34.040,103.897,,walk
2025-11-01T19:09:54.514241,4401,87,7.111078,10.218752,-2.528277,1.462782,2.378569,-0.855485,5.648296,7.840183,-1.672792,1.094671,-0.219988,0.582460,-18.900000,8.520000,-17.100000,-105.486,-34.040,103.897,,walk
2025-11-01T19:09:54.564349,4452,88,7.111078,10.218752,-2.528277,1.462782,2.378569,-0.855485,5.648296,7.840183,-1.672792,1.094671,-0.219988,0.582460,-27.180000,4.080000,-6.840000,-134.099,-34.040,103.897,,walk
2025-11-01T19:09:54.613821,4501,89,6.783072,5.717653,-3.136404,0.990575,3.363939,0.895307,5.792497,2.353714,-4.031711,-0.085521,0.302913,0.457233,-27.180000,4.080000,-6.840000,-125.673,-46.127,118.747,,walk
2025-11-01T19:09:54.663788,4551,90,6.783072,5.717653,-3.136404,0.990575,3.363939,0.895307,5.792497,2.353714,-4.031711,-0.085521,0.302913,0.457233,-27.180000,4.080000,-6.840000,-125.673,-46.127,118.747,,walk
2025-11-01T19:09:54.713723,4601,91,6.783072,5.717653,-3.136404,0.990575,3.363939,0.895307,5.792497,2.353714,-4.031711,-0.085521,0.302913,0.457233,-27.180000,4.080000,-6.840000,-125.673,-46.127,118.747,,walk
2025-11-01T19:09:54.763448,4651,92,5.540482,5.090372,-3.145981,-0.028365,-1.142066,-1.487587,5.568847,6.232438,-1.658394,-1.043969,0.999299,0.506102,-35.939999,12.059999,-24.779999,-107.692,-42.796,121.717,,walk
2025-11-01T19:09:54.814233,4701,93,5.540482,5.090372,-3.145981,-0.028365,-1.142066,-1.487587,5.568847,6.232438,-1.658394,-1.043969,0.999299,0.506102,-35.939999,12.059999,-24.779999,-107.692,-42.796,121.717,,walk
2025-11-01T19:09:54.864396,4752,94,5.540482,5.090372,-3.145981,-0.028365,-1.142066,-1.487587,5.568847,6.232438,-1.658394,-1.043969,0.999299,0.506102,-35.939999,12.059999,-24.779999,-107.692,-42.796,121.717,,walk
2025-11-01T19:09:54.914049,4801,95,5.540482,5.090372,-3.145981,-0.028365,-1.142066,-1.487587,5.568847,6.232438,-1.658394,-1.043969,0.999299,0.506102,-35.939999,12.059999,-24.779999,-107.692,-42.796,121.717,,walk
2025-11-01T19:09:54.963880,4851,96,7.889194,8.054394,-1.431733,-1.579665,-1.554435,-1.997046,9.468859,9.608829,0.565313,0.418443,-0.114919,0.021075,-36.480000,14.400000,-32.759998,-94.409,-43.961,100.079,,walk
2025-11-01T19:09:55.013757,4901,97,7.889194,8.054394,-1.431733,-1.579665,-1.554435,-1.997046,9.468859,9.608829,0.565313,0.418443,-0.114919,0.021075,-36.480000,14.400000,-32.759998,-94.409,-43.961,100.079,,walk
2025-11-01T19:09:55.064543,4952,98,7.889194,8.054394,-1.431733,-1.579665,-1.554435,-1.997046,9.468859,9.608829,0.565313,0.418443,-0.114919,0.021075,-36.480000,14.400000,-32.759998,-94.409,-43.961,100.079,,walk
2025-11-01T19:09:55.113885,5001,99,7.889194,8.054394,-1.431733,-1.579665,-1.554435,-1.997046,9.468859,9.608829,0.565313,0.418443,-0.114919,0.021075,-36.480000,14.400000,-32.759998,-94.409,-43.961,100.079,,walk
2025-11-01T19:09:55.163673,5051,100,6.771101,6.024111,-1.800440,1.812501,1.432750,2.492252,4.958601,4.591361,-4.292691,0.449597,0.640721,-0.094379,-30.119999,0.300000,-28.920000,-88.999,-47.121,106.640,,walk
2025-11-01T19:09:55.214058,5101,101,6.771101,6.024111,-1.800440,1.812501,1.432750,2.492252,4.958601,4.591361,-4.292691,0.449597,0.640721,-0.094379,-30.119999,0.300000,-28.920000,-88.999,-47.121,106.640,,walk
2025-11-01T19:09:55.263828,5151,102,6.771101,6.024111,-1.800440,1.812501,1.432750,2.492252,4.958601,4.591361,-4.292691,0.449597,0.640721,-0.094379,-30.119999,0.300000,-28.920000,-88.999,-47.121,106.640,,walk
2025-11-01T19:09:55.313858,5201,103,4.769250,6.222829,-3.746926,0.487580,-0.431403,2.074311,4.281670,6.654232,-5.821236,0.080023,-0.326278,-0.321621,-30.119999,0.300000,-28.920000,-105.004,-33.288,121.053,,walk
2025-11-01T19:09:55.363888,5251,104,4.769250,6.222829,-3.746926,0.487580,-0.431403,2.074311,4.281670,6.654232,-5.821236,0.080023,-0.326278,-0.321621,-41.219997,6.300000,-33.360001,-111.972,-33.288,121.053,,walk
2025-11-01T19:09:55.413840,5301,105,4.769250,6.222829,-3.746926,0.487580,-0.431403,2.074311,4.281670,6.654232,-5.821236,0.080023,-0.326278,-0.321621,-41.219997,6.300000,-33.360001,-111.972,-33.288,121.053,,walk
2025-11-01T19:09:55.464329,5352,106,4.769250,6.222829,-3.746926,0.487580,-0.431403,2.074311,4.281670,6.654232,-5.821236,0.080023,-0.326278,-0.321621,-41.219997,6.300000,-33.360001,-111.972,-33.288,121.053,,walk
2025-11-01T19:09:55.513794,5401,107,6.055235,7.187693,-3.794810,-1.514657,-0.523530,-0.404903,7.569892,7.711223,-3.389906,-0.572992,1.056110,0.050396,-41.219997,6.300000,-33.360001,-107.165,-36.686,117.832,,walk
2025-11-01T19:09:55.564080,5451,108,6.055235,7.187693,-3.794810,-1.514657,-0.523530,-0.404903,7.569892,7.711223,-3.389906,-0.572992,1.056110,0.050396,-41.459999,8.400000,-38.459999,-102.787,-36.686,117.832,,walk
2025-11-01T19:09:55.614235,5501,109,6.055235,7.187693,-3.794810,-1.514657,-0.523530,-0.404903,7.569892,7.711223,-3.389906,-0.572992,1.056110,0.050396,-41.459999,8.400000,-38.459999,-102.787,-36.686,117.832,,walk
2025-11-01T19:09:55.663639,5551,110,7.688081,5.794267,-2.377442,-0.466262,0.487618,-0.836919,8.154343,5.306649,-1.540524,0.557720,-1.519298,-0.440128,-41.459999,8.400000,-38.459999,-85.763,-50.832,112.309,,walk
2025-11-01T19:09:55.714454,5602,111,7.688081,5.794267,-2.377442,-0.466262,0.487618,-0.836919,8.154343,5.306649,-1.540524,0.557720,-1.519298,-0.440128,-41.459999,8.400000,-38.459999,-85.763,-50.832,112.309,,walk
2025-11-01T19:09:55.764368,5652,112,7.688081,5.794267,-2.377442,-0.466262,0.487618,-0.836919,8.154343,5.306649,-1.540524,0.557720,-1.519298,-0.440128,-45.599998,7.140000,-37.020000,-90.110,-50.832,112.309,,walk
2025-11-01T19:09:55.813788,5701,113,7.688081,5.794267,-2.377442,-0.466262,0.487618,-0.836919,8.154343,5.306649,-1.540524,0.557720,-1.519298,-0.440128,-45.599998,7.140000,-37.020000,-90.110,-50.832,112.309,,walk
2025-11-01T19:09:55.863771,5751,114,5.207688,5.248389,-3.821146,1.992360,-0.913154,1.951469,3.215328,6.161543,-5.772615,-0.094684,-0.363541,0.054672,-45.599998,7.140000,-37.020000,-106.378,-38.735,126.057,,walk
2025-11-01T19:09:55.913883,5801,115,5.207688,5.248389,-3.821146,1.992360,-0.913154,1.951469,3.215328,6.161543,-5.772615,-0.094684,-0.363541,0.054672,-45.599998,7.140000,-37.020000,-106.378,-38.735,126.057,,walk
2025-11-01T19:09:55.963734,5851,116,5.207688,5.248389,-3.821146,1.992360,-0.913154,1.951469,3.215328,6.161543,-5.772615,-0.094684,-0.363541,0.054672,-96.540001,71.099998,-31.320000,-154.361,-38.735,126.057,,walk
2025-11-01T19:09:56.014152,5901,117,5.207688,5.248389,-3.821146,-0.910460,-1.252154,0.238528,6.118147,6.500544,-4.059674,-0.050702,0.205174,-0.094990,-96.540001,71.099998,-31.320000,-154.361,-38.735,126.057,,walk
2025-11-01T19:09:56.064259,5951,118,4.843470,6.498163,-5.171775,-0.910460,-1.252154,0.238528,5.753930,7.750317,-5.410303,-0.050702,0.205174,-0.094990,-96.540001,71.099998,-31.320000,-167.535,-30.251,128.516,,walk
2025-11-01T19:09:56.113653,6001,119,4.843470,6.498163,-5.171775,-0.910460,-1.252154,0.238528,5.753930,7.750317,-5.410303,-0.050702,0.205174,-0.094990,-96.540001,71.099998,-31.320000,-167.535,-30.251,128.516,,walk
2025-11-01T19:09:56.163967,6051,120,4.843470,6.498163,-5.171775,-0.910460,-1.252154,0.238528,5.753930,7.750317,-5.410303,-0.050702,0.205174,-0.094990,-147.179993,60.059998,-40.680000,-155.719,-30.251,128.516,,walk
2025-11-01T19:09:56.214165,6101,121,7.051223,7.726388,-4.012682,-1.023228,-0.171029,-1.015599,8.074451,7.897417,-2.997083,-0.020159,0.951652,0.143859,-147.179993,60.059998,-40.680000,-137.069,-39.004,117.445,,walk
2025-11-01T19:09:56.263903,6151,122,7.051223,7.726388,-4.012682,-1.023228,-0.171029,-1.015599,8.074451,7.897417,-2.997083,-0.020159,0.951652,0.143859,-147.179993,60.059998,-40.680000,-137.069,-39.004,117.445,,walk
2025-11-01T19:09:56.314698,6202,123,7.051223,7.726388,-4.012682,-1.023228,-0.171029,-1.015599,8.074451,7.897417,-2.997083,-0.020159,0.951652,0.143859,-147.179993,60.059998,-40.680000,-137.069,-39.004,117.445,,walk
2025-11-01T19:09:56.364573,6252,124,7.051223,7.726388,-4.012682,-1.023228,-0.171029,-1.015599,8.074451,7.897417,-2.997083,-0.020159,0.951652,0.143859,-49.020000,-22.980000,-49.139999,-95.695,-39.004,117.445,,walk
2025-11-01T19:09:56.413590,6301,125,6.222829,6.055235,-0.189142,0.220611,1.100287,-1.644709,6.002219,4.954948,1.455567,-0.100793,0.431805,0.121868,-49.020000,-22.980000,-49.139999,-89.170,-45.768,91.789,,walk
2025-11-01T19:09:56.464050,6351,126,6.222829,6.055235,-0.189142,0.220611,1.100287,-1.644709,6.002219,4.954948,1.455567,-0.100793,0.431805,0.121868,-49.020000,-22.980000,-49.139999,-89.170,-45.768,91.789,,walk
2025-11-01T19:09:56.513734,6401,127,6.222829,6.055235,-0.189142,0.220611,1.100287,-1.644709,6.002219,4.954948,1.455567,-0.100793,0.431805,0.121868,-49.020000,-22.980000,-49.139999,-89.170,-45.768,91.789,,walk
2025-11-01T19:09:56.564811,6452,128,6.651392,7.089530,-2.327164,-0.949035,-0.458693,1.328511,7.600427,7.548223,-3.655675,0.403782,0.499611,-0.229991,-26.639999,-33.000000,-49.200001,-78.294,-41.714,108.173,,walk
2025-11-01T19:09:56.614530,6502,129,6.651392,7.089530,-2.327164,-0.949035,-0.458693,1.328511,7.600427,7.548223,-3.655675,0.403782,0.499611,-0.229991,-26.639999,-33.000000,-49.200001,-78.294,-41.714,108.173,,walk
2025-11-01T19:09:56.664259,6551,130,6.651392,7.089530,-2.327164,-0.949035,-0.458693,1.328511,7.600427,7.548223,-3.655675,0.403782,0.499611,-0.229991,-26.639999,-33.000000,-49.200001,-78.294,-41.714,108.173,,walk
2025-11-01T19:09:56.713782,6601,131,6.651392,7.089530,-2.327164,-0.949035,-0.458693,1.328511,7.600427,7.548223,-3.655675,0.403782,0.499611,-0.229991,-26.639999,-33.000000,-49.200001,-78.294,-41.714,108.173,,walk
2025-11-01T19:09:56.764100,6651,132,7.460632,8.011298,-1.956063,-0.219303,0.452131,-0.111646,7.679935,7.559167,-1.844416,0.604757,0.239994,-0.476780,-27.959999,-50.099998,-42.360001,-82.776,-42.135,103.721,,walk
2025-11-01T19:09:56.814020,6701,133,7.460632,8.011298,-1.956063,-0.219303,0.452131,-0.111646,7.679935,7.559167,-1.844416,0.604757,0.239994,-0.476780,-27.959999,-50.099998,-42.360001,-82.776,-42.135,103.721,,walk
2025-11-01T19:09:56.864152,6751,134,7.460632,8.011298,-1.956063,-0.219303,0.452131,-0.111646,7.679935,7.559167,-1.844416,0.604757,0.239994,-0.476780,-27.959999,-50.099998,-42.360001,-82.776,-42.135,103.721,,walk
2025-11-01T19:09:56.913693,6801,135,7.460632,8.011298,-1.956063,-0.219303,0.452131,-0.111646,7.679935,7.559167,-1.844416,0.604757,0.239994,-0.476780,-27.959999,-50.099998,-42.360001,-82.776,-42.135,103.721,,walk
2025-11-01T19:09:56.963747,6851,136,8.006510,5.494992,-0.972046,1.079525,0.989720,0.523616,6.926984,4.505272,-1.495661,-0.473421,-1.726992,-0.255647,-31.740000,-60.299999,-27.059999,-85.492,-55.125,100.032,,walk
2025-11-01T19:09:57.013746,6901,137,8.006510,5.494992,-0.972046,1.079525,0.989720,0.523616,6.926984,4.505272,-1.495661,-0.473421,-1.726992,-0.255647,-31.740000,-60.299999,-27.059999,-85.492,-55.125,100.032,,walk
2025-11-01T19:09:57.063780,6951,138,8.006510,5.494992,-0.972046,1.079525,0.989720,0.523616,6.926984,4.505272,-1.495661,-0.473421,-1.726992,-0.255647,-31.740000,-60.299999,-27.059999,-85.492,-55.125,100.032,,walk
2025-11-01T19:09:57.113922,7001,139,6.004957,5.712864,-3.385401,1.619360,-1.568222,1.370032,4.385597,7.281086,-4.755433,0.367130,0.747623,-0.151800,-31.740000,-60.299999,-27.059999,-94.648,-42.122,120.651,,walk
2025-11-01T19:09:57.164461,7052,140,6.004957,5.712864,-3.385401,1.619360,-1.568222,1.370032,4.385597,7.281086,-4.755433,0.367130,0.747623,-0.151800,-34.919998,-57.899998,-22.439999,-99.624,-42.122,120.651,,walk
2025-11-01T19:09:57.214168,7101,141,6.004957,5.712864,-3.385401,1.619360,-1.568222,1.370032,4.385597,7.281086,-4.755433,0.367130,0.747623,-0.151800,-34.919998,-57.899998,-22.439999,-99.624,-42.122,120.651,,walk
2025-11-01T19:09:57.264823,7152,142,6.004957,5.712864,-3.385401,1.619360,-1.568222,1.370032,4.385597,7.281086,-4.755433,0.367130,0.747623,-0.151800,-34.919998,-57.899998,-22.439999,-99.624,-42.122,120.651,,walk
2025-11-01T19:09:57.313653,7201,143,7.008128,7.551611,-3.691859,0.339950,-1.876087,-0.838708,6.668178,9.427698,-2.853151,0.027489,-0.581009,-2.085189,-34.919998,-57.899998,-22.439999,-101.536,-39.819,116.053,,walk
2025-11-01T19:09:57.364144,7251,144,7.008128,7.551611,-3.691859,0.339950,-1.876087,-0.838708,6.668178,9.427698,-2.853151,0.027489,-0.581009,-2.085189,-30.119999,-61.859997,-24.359999,-97.007,-39.819,116.053,,walk
2025-11-01T19:09:57.414982,7302,145,7.008128,7.551611,-3.691859,0.339950,-1.876087,-0.838708,6.668178,9.427698,-2.853151,0.027489,-0.581009,-2.085189,-30.119999,-61.859997,-24.359999,-97.007,-39.819,116.053,,walk
2025-11-01T19:09:57.463615,7351,146,1.687912,10.482115,-1.687912,6.111201,-1.831595,-0.986106,-4.423289,12.313710,-0.701806,-0.240681,-0.630489,-1.718669,-30.119999,-61.859997,-24.359999,-124.121,-9.033,99.148,,walk
2025-11-01T19:09:57.514134,7401,147,1.687912,10.482115,-1.687912,6.111201,-1.831595,-0.986106,-4.423289,12.313710,-0.701806,-0.240681,-0.630489,-1.718669,-30.119999,-61.859997,-24.359999,-124.121,-9.033,99.148,,walk
2025-11-01T19:09:57.564956,7452,148,1.687912,10.482115,-1.687912,6.111201,-1.831595,-0.986106,-4.423289,12.313710,-0.701806,-0.240681,-0.630489,-1.718669,-22.859999,-54.539997,-26.580000,-115.764,-9.033,99.148,,walk
2025-11-01T19:09:57.614891,7502,149,1.687912,10.482115,-1.687912,6.111201,-1.831595,-0.986106,-4.423289,12.313710,-0.701806,-0.240681,-0.630489,-1.718669,-22.859999,-54.539997,-26.580000,-115.764,-9.033,99.148,,walk
2025-11-01T19:09:57.663648,7551,150,1.635240,10.118196,-2.078167,-0.039773,1.065580,0.436691,1.675013,9.052615,-2.514858,0.468534,-0.133245,2.026546,-22.859999,-54.539997,-26.580000,-114.626,-8.996,101.607,,walk
2025-11-01T19:09:57.713772,7601,151,1.635240,10.118196,-2.078167,-0.039773,1.065580,0.436691,1.675013,9.052615,-2.514858,0.468534,-0.133245,2.026546,-22.859999,-54.539997,-26.580000,-114.626,-8.996,101.607,,walk
2025-11-01T19:09:57.764956,7652,152,1.635240,10.118196,-2.078167,-0.039773,1.065580,0.436691,1.675013,9.052615,-2.514858,0.468534,-0.133245,2.026546,-22.680000,-50.579998,-36.840000,-108.654,-8.996,101.607,,walk
2025-11-01T19:09:57.813512,7701,153,1.635240,10.118196,-2.078167,-1.034868,0.909555,-0.018651,2.670108,9.208640,-2.059515,0.060476,0.273591,0.359494,-22.680000,-50.579998,-36.840000,-108.654,-8.996,101.607,,walk
2025-11-01T19:09:57.864241,7751,154,1.206678,9.002498,-1.960851,-1.034868,0.909555,-0.018651,2.241546,8.092942,-1.942200,0.060476,0.273591,0.359494,-22.680000,-50.579998,-36.840000,-109.741,-7.461,102.288,,walk
2025-11-01T19:09:57.913817,7801,155,1.206678,9.002498,-1.960851,-1.034868,0.909555,-0.018651,2.241546,8.092942,-1.942200,0.060476,0.273591,0.359494,-22.680000,-50.579998,-36.840000,-109.741,-7.461,102.288,,walk
2025-11-01T19:09:57.963765,7851,156,1.206678,9.002498,-1.960851,-1.034868,0.909555,-0.018651,2.241546,8.092942,-1.942200,0.060476,0.273591,0.359494,-29.160000,-45.719997,-34.259998,-117.688,-7.461,102.288,,walk
2025-11-01T19:09:58.014238,7901,157,4.376601,12.419024,-2.454057,-1.876197,-0.012703,0.361203,6.252798,12.431726,-2.815260,0.560774,-0.633544,-0.054062,-29.160000,-45.719997,-34.259998,-108.132,-19.072,101.178,,walk
2025-11-01T19:09:58.064153,7951,158,4.376601,12.419024,-2.454057,-1.876197,-0.012703,0.361203,6.252798,12.431726,-2.815260,0.560774,-0.633544,-0.054062,-29.160000,-45.719997,-34.259998,-108.132,-19.072,101.178,,walk
2025-11-01T19:09:58.113730,8001,159,4.376601,12.419024,-2.454057,-1.876197,-0.012703,0.361203,6.252798,12.431726,-2.815260,0.560774,-0.633544,-0.054062,-29.160000,-45.719997,-34.259998,-108.132,-19.072,101.178,,walk
2025-11-01T19:09:58.163781,8051,160,4.376601,12.419024,-2.454057,-1.876197,-0.012703,0.361203,6.252798,12.431726,-2.815260,0.560774,-0.633544,-0.054062,-15.719999,-55.799999,-25.019999,-99.709,-19.072,101.178,,walk
2025-11-01T19:09:58.214739,8102,161,3.921702,7.328951,-1.879448,1.439647,3.736743,1.033440,2.482055,3.592208,-2.912888,-0.109345,-0.240757,0.468228,-15.719999,-55.799999,-25.019999,-93.299,-27.399,104.383,,walk
2025-11-01T19:09:58.263717,8151,162,3.921702,7.328951,-1.879448,1.439647,3.736743,1.033440,2.482055,3.592208,-2.912888,-0.109345,-0.240757,0.468228,-15.719999,-55.799999,-25.019999,-93.299,-27.399,104.383,,walk
2025-11-01T19:09:58.315087,8202,163,3.921702,7.328951,-1.879448,1.439647,3.736743,1.033440,2.482055,3.592208,-2.912888,-0.109345,-0.240757,0.468228,-15.719999,-55.799999,-25.019999,-93.299,-27.399,104.383,,walk
2025-11-01T19:09:58.364076,8251,164,2.923320,6.553229,-4.378995,-0.112795,-1.202893,0.785272,3.036116,7.756123,-5.164267,-0.805731,0.214948,-0.592234,-9.360000,-57.480000,-19.139999,-92.449,-20.350,123.752,,walk
2025-11-01T19:09:58.413776,8301,165,2.923320,6.553229,-4.378995,-0.112795,-1.202893,0.785272,3.036116,7.756123,-5.164267,-0.805731,0.214948,-0.592234,-9.360000,-57.480000,-19.139999,-92.449,-20.350,123.752,,walk
2025-11-01T19:09:58.463852,8351,166,2.923320,6.553229,-4.378995,-0.112795,-1.202893,0.785272,3.036116,7.756123,-5.164267,-0.805731,0.214948,-0.592234,-9.360000,-57.480000,-19.139999,-92.449,-20.350,123.752,,walk
2025-11-01T19:09:58.513706,8401,167,2.923320,6.553229,-4.378995,-0.112795,-1.202893,0.785272,3.036116,7.756123,-5.164267,-0.805731,0.214948,-0.592234,-9.360000,-57.480000,-19.139999,-92.449,-20.350,123.752,,walk
2025-11-01T19:09:58.564155,8451,168,5.380071,11.820473,-2.557007,-0.504208,-2.392722,-2.283242,5.884279,14.213195,-0.273765,0.433103,-1.340926,-0.732122,0.780000,-51.539997,-16.320000,-73.724,-23.982,102.206,,walk
2025-11-01T19:09:58.614855,8502,169,5.380071,11.820473,-2.557007,-0.504208,-2.392722,-2.283242,5.884279,14.213195,-0.273765,0.433103,-1.340926,-0.732122,0.780000,-51.539997,-16.320000,-73.724,-23.982,102.206,,walk
2025-11-01T19:09:58.663759,8551,170,5.380071,11.820473,-2.557007,-0.504208,-2.392722,-2.283242,5.884279,14.213195,-0.273765,0.433103,-1.340926,-0.732122,0.780000,-51.539997,-16.320000,-73.724,-23.982,102.206,,walk
2025-11-01T19:09:58.713499,8601,171,5.380071,11.820473,-2.557007,-0.504208,-2.392722,-2.283242,5.884279,14.213195,-0.273765,0.433103,-1.340926,-0.732122,0.780000,-51.539997,-16.320000,-73.724,-23.982,102.206,,walk
2025-11-01T19:09:58.763447,8651,172,2.949656,7.022493,-2.209848,2.595049,2.890343,0.386864,0.354607,4.132150,-2.596712,0.021991,0.386601,0.167683,-1.740000,-46.259998,-10.559999,-84.463,-21.834,107.468,,walk
2025-11-01T19:09:58.813565,8701,173,2.949656,7.022493,-2.209848,2.595049,2.890343,0.386864,0.354607,4.132150,-2.596712,0.021991,0.386601,0.167683,-1.740000,-46.259998,-10.559999,-84.463,-21.834,107.468,,walk
2025-11-01T19:09:58.863424,8751,174,2.949656,7.022493,-2.209848,2.595049,2.890343,0.386864,0.354607,4.132150,-2.596712,0.021991,0.386601,0.167683,-1.740000,-46.259998,-10.559999,-84.463,-21.834,107.468,,walk
2025-11-01T19:09:58.913495,8801,175,2.111686,9.617807,-2.092532,-0.322605,-2.189391,-1.432976,2.434291,11.807198,-0.659556,-0.797790,2.240577,-0.561080,-1.740000,-46.259998,-10.559999,-88.549,-12.109,102.274,,walk
2025-11-01T19:09:58.963617,8851,176,2.111686,9.617807,-2.092532,-0.322605,-2.189391,-1.432976,2.434291,11.807198,-0.659556,-0.797790,2.240577,-0.561080,-4.740000,-42.180000,-24.059999,-89.282,-12.109,102.274,,walk
2025-11-01T19:09:59.013650,8901,177,2.111686,9.617807,-2.092532,-0.322605,-2.189391,-1.432976,2.434291,11.807198,-0.659556,-0.797790,2.240577,-0.561080,-4.740000,-42.180000,-24.059999,-89.282,-12.109,102.274,,walk
2025-11-01T19:09:59.064345,8952,178,2.111686,9.617807,-2.092532,-0.322605,-2.189391,-1.432976,2.434291,11.807198,-0.659556,-0.797790,2.240577,-0.561080,-4.740000,-42.180000,-24.059999,-89.282,-12.109,102.274,,walk
2025-11-01T19:09:59.114127,9001,179,4.781221,14.075811,-0.770933,-0.729763,0.239758,-1.707243,5.510984,13.836053,0.936310,0.558942,-0.505873,-0.216552,-4.740000,-42.180000,-24.059999,-83.051,-18.735,93.135,,walk
2025-11-01T19:09:59.163863,9051,180,4.781221,14.075811,-0.770933,-0.729763,0.239758,-1.707243,5.510984,13.836053,0.936310,0.558942,-0.505873,-0.216552,-6.300000,-38.939999,-15.540000,-92.961,-18.735,93.135,,walk
2025-11-01T19:09:59.214305,9102,181,4.781221,14.075811,-0.770933,-0.729763,0.239758,-1.707243,5.510984,13.836053,0.936310,0.558942,-0.505873,-0.216552,-6.300000,-38.939999,-15.540000,-92.961,-18.735,93.135,,walk
2025-11-01T19:09:59.264147,9151,182,3.505111,7.613861,-0.361524,2.059888,4.791711,0.832145,1.445224,2.822150,-1.193670,0.216857,-0.759382,-0.076053,-6.300000,-38.939999,-15.540000,-87.631,-24.695,92.718,,walk
2025-11-01T19:09:59.313620,9201,183,3.505111,7.613861,-0.361524,2.059888,4.791711,0.832145,1.445224,2.822150,-1.193670,0.216857,-0.759382,-0.076053,-6.300000,-38.939999,-15.540000,-87.631,-24.695,92.718,,walk
2025-11-01T19:09:59.365452,9253,184,3.505111,7.613861,-0.361524,2.059888,4.791711,0.832145,1.445224,2.822150,-1.193670,0.216857,-0.759382,-0.076053,-51.840000,-26.580000,7.680000,-162.435,-24.695,92.718,,walk
2025-11-01T19:09:59.414148,9301,185,3.505111,7.613861,-0.361524,2.059888,4.791711,0.832145,1.445224,2.822150,-1.193670,0.216857,-0.759382,-0.076053,-51.840000,-26.580000,7.680000,-162.435,-24.695,92.718,,walk
2025-11-01T19:09:59.463752,9351,186,1.443704,8.494926,-5.609914,0.967146,-1.707164,1.325878,0.476558,10.202091,-6.935792,-0.196088,0.136147,-0.057116,-51.840000,-26.580000,7.680000,-164.660,-8.072,123.440,,walk
2025-11-01T19:09:59.513760,9401,187,1.443704,8.494926,-5.609914,0.967146,-1.707164,1.325878,0.476558,10.202091,-6.935792,-0.196088,0.136147,-0.057116,-51.840000,-26.580000,7.680000,-164.660,-8.072,123.440,,walk
2025-11-01T19:09:59.565200,9452,188,1.443704,8.494926,-5.609914,0.967146,-1.707164,1.325878,0.476558,10.202091,-6.935792,-0.196088,0.136147,-0.057116,21.059999,-38.759998,-22.020000,-57.152,-8.072,123.440,,walk
2025-11-01T19:09:59.613665,9501,189,1.443704,8.494926,-5.609914,-1.354509,-0.785972,-4.124911,2.798213,9.280898,-1.485003,1.475240,0.196622,0.540921,21.059999,-38.759998,-22.020000,-57.152,-8.072,123.440,,walk
2025-11-01T19:09:59.664262,9551,190,4.596867,11.279384,-4.718972,-1.354509,-0.785972,-4.124911,5.951376,12.065355,-0.594061,1.475240,0.196622,0.540921,21.059999,-38.759998,-22.020000,-44.659,-20.605,112.703,,walk
2025-11-01T19:09:59.715006,9602,191,4.596867,11.279384,-4.718972,-1.354509,-0.785972,-4.124911,5.951376,12.065355,-0.594061,1.475240,0.196622,0.540921,21.059999,-38.759998,-22.020000,-44.659,-20.605,112.703,,walk
2025-11-01T19:09:59.763536,9651,192,4.596867,11.279384,-4.718972,-1.354509,-0.785972,-4.124911,5.951376,12.065355,-0.594061,1.475240,0.196622,0.540921,21.779999,-42.299999,-21.660000,-44.948,-20.605,112.703,,walk
2025-11-01T19:09:59.814398,9702,193,4.534618,8.861239,-0.924162,1.243001,2.508508,-1.891717,3.291616,6.352732,0.967555,-0.190590,-0.055665,0.283747,21.779999,-42.299999,-21.660000,-25.206,-26.975,95.954,,walk
2025-11-01T19:09:59.864071,9751,194,4.534618,8.861239,-0.924162,1.243001,2.508508,-1.891717,3.291616,6.352732,0.967555,-0.190590,-0.055665,0.283747,21.779999,-42.299999,-21.660000,-25.206,-26.975,95.954,,walk
2025-11-01T19:09:59.914635,9802,195,4.534618,8.861239,-0.924162,1.243001,2.508508,-1.891717,3.291616,6.352732,0.967555,-0.190590,-0.055665,0.283747,21.779999,-42.299999,-21.660000,-25.206,-26.975,95.954,,walk
2025-11-01T19:09:59.965088,9852,196,4.534618,8.861239,-0.924162,1.243001,2.508508,-1.891717,3.291616,6.352732,0.967555,-0.190590,-0.055665,0.283747,24.000000,-43.139999,-23.519999,-24.331,-26.975,95.954,,walk
2025-11-01T19:10:00.013613,9901,197,2.559402,7.831733,-2.217031,0.502221,0.020477,0.398923,2.057181,7.811256,-2.615954,-0.597426,1.276021,0.341779,24.000000,-43.139999,-23.519999,-41.408,-17.455,105.806,,walk
2025-11-01T19:10:00.064298,9952,198,2.559402,7.831733,-2.217031,0.502221,0.020477,0.398923,2.057181,7.811256,-2.615954,-0.597426,1.276021,0.341779,24.000000,-43.139999,-23.519999,-41.408,-17.455,105.806,,walk
2025-11-01T19:10:00.114395,10002,199,2.559402,7.831733,-2.217031,0.502221,0.020477,0.398923,2.057181,7.811256,-2.615954,-0.597426,1.276021,0.341779,24.000000,-43.139999,-23.519999,-41.408,-17.455,105.806,,walk
2025-11-01T19:10:00.163560,10051,200,4.769250,10.314520,-3.653552,-1.593489,-0.966644,-0.987263,6.362739,11.281164,-2.666289,0.620028,0.012752,-0.046731,24.420000,-42.840000,-26.160000,-40.160,-23.550,109.505,,walk
2025-11-01T19:10:00.214106,10101,201,4.769250,10.314520,-3.653552,-1.593489,-0.966644,-0.987263,6.362739,11.281164,-2.666289,0.620028,0.012752,-0.046731,24.420000,-42.840000,-26.160000,-40.160,-23.550,109.505,,walk
2025-11-01T19:10:00.265628,10153,202,4.769250,10.314520,-3.653552,-1.593489,-0.966644,-0.987263,6.362739,11.281164,-2.666289,0.620028,0.012752,-0.046731,24.420000,-42.840000,-26.160000,-40.160,-23.550,109.505,,walk
2025-11-01T19:10:00.315503,10203,203,4.769250,10.314520,-3.653552,-1.593489,-0.966644,-0.987263,6.362739,11.281164,-2.666289,0.620028,0.012752,-0.046731,24.420000,-42.840000,-26.160000,-40.160,-23.550,109.505,,walk
2025-11-01T19:10:00.364746,10252,204,4.103662,8.561965,-2.992752,0.829999,1.454752,-2.184924,3.273663,7.107213,-0.807828,-0.238237,0.345062,0.150578,26.760000,-45.119999,-25.980000,-37.391,-24.344,109.267,,walk
2025-11-01T19:10:00.413718,10301,205,4.103662,8.561965,-2.992752,0.829999,1.454752,-2.184924,3.273663,7.107213,-0.807828,-0.238237,0.345062,0.150578,26.760000,-45.119999,-25.980000,-37.391,-24.344,109.267,,walk
2025-11-01T19:10:00.464504,10352,206,4.103662,8.561965,-2.992752,0.829999,1.454752,-2.184924,3.273663,7.107213,-0.807828,-0.238237,0.345062,0.150578,26.760000,-45.119999,-25.980000,-37.391,-24.344,109.267,,walk
2025-11-01T19:10:00.515546,10403,207,4.103662,8.561965,-2.992752,0.829999,1.454752,-2.184924,3.273663,7.107213,-0.807828,-0.238237,0.345062,0.150578,26.760000,-45.119999,-25.980000,-37.391,-24.344,109.267,,walk
2025-11-01T19:10:00.563747,10451,208,3.778050,6.337751,-2.624045,0.129934,-0.213237,-1.155586,3.648116,6.550988,-1.468459,-0.064141,-0.371482,0.001527,23.219999,-46.079998,-25.439999,-40.513,-28.845,112.491,,walk
2025-11-01T19:10:00.613746,10501,209,3.778050,6.337751,-2.624045,0.129934,-0.213237,-1.155586,3.648116,6.550988,-1.468459,-0.064141,-0.371482,0.001527,23.219999,-46.079998,-25.439999,-40.513,-28.845,112.491,,walk
2025-11-01T19:10:00.663646,10551,210,3.778050,6.337751,-2.624045,0.129934,-0.213237,-1.155586,3.648116,6.550988,-1.468459,-0.064141,-0.371482,0.001527,23.219999,-46.079998,-25.439999,-40.513,-28.845,112.491,,walk
2025-11-01T19:10:00.713635,10601,211,4.381389,10.858004,-2.770091,-0.441272,-2.374042,-1.051819,4.822662,13.232045,-1.718273,-0.174707,-0.191277,-0.046731,23.219999,-46.079998,-25.439999,-40.256,-21.355,104.312,,walk
2025-11-01T19:10:00.764504,10652,212,4.381389,10.858004,-2.770091,-0.441272,-2.374042,-1.051819,4.822662,13.232045,-1.718273,-0.174707,-0.191277,-0.046731,22.920000,-48.599998,-28.980000,-43.318,-21.355,104.312,,walk
2025-11-01T19:10:00.813941,10701,213,4.381389,10.858004,-2.770091,-0.441272,-2.374042,-1.051819,4.822662,13.232045,-1.718273,-0.174707,-0.191277,-0.046731,22.920000,-48.599998,-28.980000,-43.318,-21.355,104.312,,walk
2025-11-01T19:10:00.863938,10751,214,4.381389,10.858004,-2.770091,-0.441272,-2.374042,-1.051819,4.822662,13.232045,-1.718273,-0.174707,-0.191277,-0.046731,22.920000,-48.599998,-28.980000,-43.318,-21.355,104.312,,walk
2025-11-01T19:10:00.914985,10802,215,5.636250,8.207623,-1.108515,0.200544,2.252398,-0.617429,5.435706,5.955224,-0.491086,-0.145386,-0.156458,0.213497,22.920000,-48.599998,-28.980000,-26.360,-34.236,97.692,,walk
2025-11-01T19:10:00.964396,10852,216,5.636250,8.207623,-1.108515,0.200544,2.252398,-0.617429,5.435706,5.955224,-0.491086,-0.145386,-0.156458,0.213497,20.219999,-49.200001,-27.119999,-28.735,-34.236,97.692,,walk
2025-11-01T19:10:01.013728,10901,217,5.636250,8.207623,-1.108515,0.200544,2.252398,-0.617429,5.435706,5.955224,-0.491086,-0.145386,-0.156458,0.213497,20.219999,-49.200001,-27.119999,-28.735,-34.236,97.692,,walk
2025-11-01T19:10:01.063649,10951,218,3.648763,7.135020,-1.836353,1.209225,-0.363932,0.652159,2.439538,7.498952,-2.488512,-0.485638,-0.612774,0.281914,20.219999,-49.200001,-27.119999,-41.954,-26.347,104.433,,walk
2025-11-01T19:10:01.114181,11001,219,3.648763,7.135020,-1.836353,1.209225,-0.363932,0.652159,2.439538,7.498952,-2.488512,-0.485638,-0.612774,0.281914,20.219999,-49.200001,-27.119999,-41.954,-26.347,104.433,,walk
2025-11-01T19:10:01.164250,11051,220,3.648763,7.135020,-1.836353,1.209225,-0.363932,0.652159,2.439538,7.498952,-2.488512,-0.485638,-0.612774,0.281914,16.619999,-47.340000,-28.260000,-46.766,-26.347,104.433,,walk
2025-11-01T19:10:01.213852,11101,221,3.648763,7.135020,-1.836353,1.209225,-0.363932,0.652159,2.439538,7.498952,-2.488512,-0.485638,-0.612774,0.281914,16.619999,-47.340000,-28.260000,-46.766,-26.347,104.433,,walk
2025-11-01T19:10:01.264204,11151,222,4.980239,9.191640,-1.235408,-0.806017,-1.456203,-0.250253,5.786256,10.647843,-0.985155,-0.218690,-0.731893,0.014966,16.619999,-47.340000,-28.260000,-39.618,-28.236,97.655,,walk
2025-11-01T19:10:01.314562,11202,223,4.980239,9.191640,-1.235408,-0.806017,-1.456203,-0.250253,5.786256,10.647843,-0.985155,-0.218690,-0.731893,0.014966,16.619999,-47.340000,-28.260000,-39.618,-28.236,97.655,,walk
2025-11-01T19:10:01.363733,11251,224,4.980239,9.191640,-1.235408,-0.806017,-1.456203,-0.250253,5.786256,10.647843,-0.985155,-0.218690,-0.731893,0.014966,14.340000,-44.340000,-24.900000,-40.599,-28.236,97.655,,walk
2025-11-01T19:10:01.413679,11301,225,4.980239,9.191640,-1.235408,0.697712,0.611023,0.814761,4.282526,8.580617,-2.050169,-0.131336,-0.249920,0.267254,14.340000,-44.340000,-24.900000,-40.599,-28.236,97.655,,walk
2025-11-01T19:10:01.464296,11352,226,6.297050,8.114249,-3.567361,0.697712,0.611023,0.814761,5.599337,7.503226,-4.382122,-0.131336,-0.249920,0.267254,14.340000,-44.340000,-24.900000,-47.828,-35.391,113.732,,walk
2025-11-01T19:10:01.513837,11401,227,6.297050,8.114249,-3.567361,0.697712,0.611023,0.814761,5.599337,7.503226,-4.382122,-0.131336,-0.249920,0.267254,14.340000,-44.340000,-24.900000,-47.828,-35.391,113.732,,walk
2025-11-01T19:10:01.564780,11452,228,6.297050,8.114249,-3.567361,0.697712,0.611023,0.814761,5.599337,7.503226,-4.382122,-0.131336,-0.249920,0.267254,9.480000,-43.320000,-22.799999,-54.571,-35.391,113.732,,walk
2025-11-01T19:10:01.614192,11501,229,4.371812,5.779902,-2.636016,1.654966,-0.204363,-1.238894,2.716846,5.984265,-1.397122,-0.259007,-0.313450,0.277027,9.480000,-43.320000,-22.799999,-55.504,-34.535,114.516,,walk
2025-11-01T19:10:01.663635,11551,230,4.371812,5.779902,-2.636016,1.654966,-0.204363,-1.238894,2.716846,5.984265,-1.397122,-0.259007,-0.313450,0.277027,9.480000,-43.320000,-22.799999,-55.504,-34.535,114.516,,walk
2025-11-01T19:10:01.713808,11601,231,4.371812,5.779902,-2.636016,1.654966,-0.204363,-1.238894,2.716846,5.984265,-1.397122,-0.259007,-0.313450,0.277027,9.480000,-43.320000,-22.799999,-55.504,-34.535,114.516,,walk
2025-11-01T19:10:01.763920,11651,232,4.371812,5.779902,-2.636016,1.654966,-0.204363,-1.238894,2.716846,5.984265,-1.397122,-0.259007,-0.313450,0.277027,6.900000,-41.099998,-24.420000,-58.445,-34.535,114.516,,walk
2025-11-01T19:10:01.814722,11702,233,5.693711,7.661745,-2.583344,-0.403399,-2.543994,-0.616088,6.097110,10.205739,-1.967256,-0.413556,-0.640263,-0.020464,6.900000,-41.099998,-24.420000,-55.143,-35.153,108.633,,walk
2025-11-01T19:10:01.864482,11752,234,5.693711,7.661745,-2.583344,-0.403399,-2.543994,-0.616088,6.097110,10.205739,-1.967256,-0.413556,-0.640263,-0.020464,6.900000,-41.099998,-24.420000,-55.143,-35.153,108.633,,walk
2025-11-01T19:10:01.914103,11801,235,5.693711,7.661745,-2.583344,-0.403399,-2.543994,-0.616088,6.097110,10.205739,-1.967256,-0.413556,-0.640263,-0.020464,6.900000,-41.099998,-24.420000,-55.143,-35.153,108.633,,walk
2025-11-01T19:10:01.964451,11852,236,5.906795,6.694487,-2.205060,0.884297,-0.472988,0.036905,5.022498,7.167475,-2.241964,-0.081856,-0.679969,0.169515,5.340000,-40.379997,-22.080000,-54.317,-39.965,108.231,,walk
2025-11-01T19:10:02.014279,11901,237,5.906795,6.694487,-2.205060,0.884297,-0.472988,0.036905,5.022498,7.167475,-2.241964,-0.081856,-0.679969,0.169515,5.340000,-40.379997,-22.080000,-54.317,-39.965,108.231,,walk
2025-11-01T19:10:02.065540,11953,238,5.906795,6.694487,-2.205060,0.884297,-0.472988,0.036905,5.022498,7.167475,-2.241964,-0.081856,-0.679969,0.169515,5.340000,-40.379997,-22.080000,-54.317,-39.965,108.231,,walk
2025-11-01T19:10:02.114447,12002,239,5.906795,6.694487,-2.205060,0.884297,-0.472988,0.036905,5.022498,7.167475,-2.241964,-0.081856,-0.679969,0.169515,5.340000,-40.379997,-22.080000,-54.317,-39.965,108.231,,walk
2025-11-01T19:10:02.163652,12051,240,5.676951,4.249708,-2.250550,0.911421,-1.438369,0.047253,4.765531,5.688077,-2.297802,-0.238848,0.131871,0.081551,3.540000,-39.299999,-21.779999,-56.390,-49.733,117.905,,walk
2025-11-01T19:10:02.213690,12101,241,5.676951,4.249708,-2.250550,0.911421,-1.438369,0.047253,4.765531,5.688077,-2.297802,-0.238848,0.131871,0.081551,3.540000,-39.299999,-21.779999,-56.390,-49.733,117.905,,walk
2025-11-01T19:10:02.265811,12153,242,5.676951,4.249708,-2.250550,0.911421,-1.438369,0.047253,4.765531,5.688077,-2.297802,-0.238848,0.131871,0.081551,3.540000,-39.299999,-21.779999,-56.390,-49.733,117.905,,walk
2025-11-01T19:10:02.313999,12201,243,5.676951,4.249708,-2.250550,0.911421,-1.438369,0.047253,4.765531,5.688077,-2.297802,-0.238848,0.131871,0.081551,3.540000,-39.299999,-21.779999,-56.390,-49.733,117.905,,walk
2025-11-01T19:10:02.365083,12252,244,4.790798,9.620202,-1.180341,0.258246,-3.797765,-0.820226,4.532551,13.417967,-0.360116,-0.657291,-0.554742,0.072998,-0.060000,-35.099998,-26.519999,-67.252,-26.303,96.995,,walk
2025-11-01T19:10:02.414124,12301,245,4.790798,9.620202,-1.180341,0.258246,-3.797765,-0.820226,4.532551,13.417967,-0.360116,-0.657291,-0.554742,0.072998,-0.060000,-35.099998,-26.519999,-67.252,-26.303,96.995,,walk
2025-11-01T19:10:02.464021,12351,246,4.790798,9.620202,-1.180341,0.258246,-3.797765,-0.820226,4.532551,13.417967,-0.360116,-0.657291,-0.554742,0.072998,-0.060000,-35.099998,-26.519999,-67.252,-26.303,96.995,,walk
2025-11-01T19:10:02.514135,12401,247,6.277896,6.337751,2.746149,-0.341709,1.300002,-0.404781,6.619605,5.037749,3.150931,-0.800844,-0.910266,-0.079718,-0.060000,-35.099998,-26.519999,-12.943,-42.268,66.573,,walk
2025-11-01T19:10:02.565068,12452,248,6.277896,6.337751,2.746149,-0.341709,1.300002,-0.404781,6.619605,5.037749,3.150931,-0.800844,-0.910266,-0.079718,-4.500000,-35.880001,-30.599998,-28.302,-42.268,66.573,,walk
2025-11-01T19:10:02.614190,12501,249,6.277896,6.337751,2.746149,-0.341709,1.300002,-0.404781,6.619605,5.037749,3.150931,-0.800844,-0.910266,-0.079718,-4.500000,-35.880001,-30.599998,-28.302,-42.268,66.573,,walk
2025-11-01T19:10:02.664104,12551,250,6.277896,6.337751,2.746149,-0.341709,1.300002,-0.404781,6.619605,5.037749,3.150931,-0.800844,-0.910266,-0.079718,-4.500000,-35.880001,-30.599998,-28.302,-42.268,66.573,,walk
2025-11-01T19:10:02.713979,12601,251,5.047276,8.703222,0.090980,1.093522,-1.932045,3.696326,3.953754,10.635267,-3.605346,-0.114843,0.453797,0.302684,-4.500000,-35.880001,-30.599998,-67.995,-30.109,89.401,,walk
2025-11-01T19:10:02.764899,12652,252,5.047276,8.703222,0.090980,1.093522,-1.932045,3.696326,3.953754,10.635267,-3.605346,-0.114843,0.453797,0.302684,-3.720000,-37.079998,-30.179998,-66.627,-30.109,89.401,,walk
2025-11-01T19:10:02.814003,12701,253,5.047276,8.703222,0.090980,1.093522,-1.932045,3.696326,3.953754,10.635267,-3.605346,-0.114843,0.453797,0.302684,-3.720000,-37.079998,-30.179998,-66.627,-30.109,89.401,,walk
2025-11-01T19:10:02.863746,12751,254,4.826711,7.613861,-2.413355,-0.338287,0.570567,1.103782,5.164998,7.043293,-3.517137,-0.084910,0.201509,-0.152411,-3.720000,-37.079998,-30.179998,-71.741,-31.145,107.587,,walk
2025-11-01T19:10:02.913786,12801,255,4.826711,7.613861,-2.413355,-0.338287,0.570567,1.103782,5.164998,7.043293,-3.517137,-0.084910,0.201509,-0.152411,-3.720000,-37.079998,-30.179998,-71.741,-31.145,107.587,,walk
2025-11-01T19:10:02.963884,12851,256,4.826711,7.613861,-2.413355,-0.338287,0.570567,1.103782,5.164998,7.043293,-3.517137,-0.084910,0.201509,-0.152411,-4.020000,-36.959999,-30.539999,-72.018,-31.145,107.587,,walk
2025-11-01T19:10:03.014455,12902,257,4.826711,7.613861,-2.413355,-0.338287,0.570567,1.103782,5.164998,7.043293,-3.517137,-0.084910,0.201509,-0.152411,-4.020000,-36.959999,-30.539999,-72.018,-31.145,107.587,,walk
2025-11-01T19:10:03.064570,12952,258,8.696040,11.468526,-2.731784,-0.185888,-0.609353,-0.563352,8.881928,12.077878,-2.168432,-0.317650,-1.236468,-0.057727,-4.020000,-36.959999,-30.539999,-66.827,-36.413,103.398,,walk
2025-11-01T19:10:03.113819,13001,259,8.696040,11.468526,-2.731784,-0.185888,-0.609353,-0.563352,8.881928,12.077878,-2.168432,-0.317650,-1.236468,-0.057727,-4.020000,-36.959999,-30.539999,-66.827,-36.413,103.398,,walk
2025-11-01T19:10:03.163876,13051,260,8.696040,11.468526,-2.731784,-0.185888,-0.609353,-0.563352,8.881928,12.077878,-2.168432,-0.317650,-1.236468,-0.057727,-9.599999,-35.099998,-25.500000,-77.576,-36.413,103.398,,walk
2025-11-01T19:10:03.213686,13101,261,8.696040,11.468526,-2.731784,3.923759,3.309345,-0.119663,4.772281,8.159181,-2.612121,-0.189368,0.230831,0.121257,-9.599999,-35.099998,-25.500000,-77.576,-36.413,103.398,,walk
2025-11-01T19:10:03.263921,13151,262,5.119102,7.230788,-1.625663,3.923759,3.309345,-0.119663,1.195343,3.921443,-1.505999,-0.189368,0.230831,0.121257,-9.599999,-35.099998,-25.500000,-78.863,-34.634,102.671,,walk
2025-11-01T19:10:03.313667,13201,263,5.119102,7.230788,-1.625663,3.923759,3.309345,-0.119663,1.195343,3.921443,-1.505999,-0.189368,0.230831,0.121257,-9.599999,-35.099998,-25.500000,-78.863,-34.634,102.671,,walk
2025-11-01T19:10:03.363971,13251,264,5.119102,7.230788,-1.625663,3.923759,3.309345,-0.119663,1.195343,3.921443,-1.505999,-0.189368,0.230831,0.121257,-9.480000,-32.639999,-25.920000,-78.217,-34.634,102.671,,walk
2025-11-01T19:10:03.414290,13301,265,4.613626,7.757513,-2.568978,-0.035938,-0.785680,0.683440,4.649565,8.543192,-3.252418,0.170431,-0.032452,0.388816,-9.480000,-32.639999,-25.920000,-82.916,-29.448,108.323,,walk
2025-11-01T19:10:03.464271,13351,266,4.613626,7.757513,-2.568978,-0.035938,-0.785680,0.683440,4.649565,8.543192,-3.252418,0.170431,-0.032452,0.388816,-9.480000,-32.639999,-25.920000,-82.916,-29.448,108.323,,walk
2025-11-01T19:10:03.513837,13401,267,4.613626,7.757513,-2.568978,-0.035938,-0.785680,0.683440,4.649565,8.543192,-3.252418,0.170431,-0.032452,0.388816,-9.480000,-32.639999,-25.920000,-82.916,-29.448,108.323,,walk
2025-11-01T19:10:03.565209,13452,268,4.613626,7.757513,-2.568978,-0.035938,-0.785680,0.683440,4.649565,8.543192,-3.252418,0.170431,-0.032452,0.388816,-9.540000,-31.320000,-26.279999,-82.703,-29.448,108.323,,walk
2025-11-01T19:10:03.614278,13501,269,7.522881,9.512463,-3.409343,-0.695633,-0.225231,-0.505622,8.218514,9.737694,-2.903721,-0.274278,0.606513,-0.118202,-9.540000,-31.320000,-26.279999,-77.332,-36.667,109.718,,walk
2025-11-01T19:10:03.664235,13551,270,7.522881,9.512463,-3.409343,-0.695633,-0.225231,-0.505622,8.218514,9.737694,-2.903721,-0.274278,0.606513,-0.118202,-9.540000,-31.320000,-26.279999,-77.332,-36.667,109.718,,walk
2025-11-01T19:10:03.714445,13602,271,7.522881,9.512463,-3.409343,-0.695633,-0.225231,-0.505622,8.218514,9.737694,-2.903721,-0.274278,0.606513,-0.118202,-9.540000,-31.320000,-26.279999,-77.332,-36.667,109.718,,walk
2025-11-01T19:10:03.763603,13651,272,6.881235,5.971438,-2.770091,2.513674,1.210967,-1.938640,4.367561,4.760471,-0.831451,-0.107512,-0.463112,0.034514,-8.220000,-28.139999,-29.939999,-66.103,-46.270,114.886,,walk
2025-11-01T19:10:03.814966,13702,273,6.881235,5.971438,-2.770091,2.513674,1.210967,-1.938640,4.367561,4.760471,-0.831451,-0.107512,-0.463112,0.034514,-8.220000,-28.139999,-29.939999,-66.103,-46.270,114.886,,walk
2025-11-01T19:10:03.863805,13751,274,6.881235,5.971438,-2.770091,2.513674,1.210967,-1.938640,4.367561,4.760471,-0.831451,-0.107512,-0.463112,0.034514,-8.220000,-28.139999,-29.939999,-66.103,-46.270,114.886,,walk
2025-11-01T19:10:03.913569,13801,275,6.881235,5.971438,-2.770091,2.513674,1.210967,-1.938640,4.367561,4.760471,-0.831451,-0.107512,-0.463112,0.034514,-8.220000,-28.139999,-29.939999,-66.103,-46.270,114.886,,walk
2025-11-01T19:10:03.964337,13852,276,5.061642,6.512528,-1.580173,1.576781,-2.231091,-1.903373,3.484861,8.743619,0.323200,-0.260229,0.149586,0.063225,-11.520000,-25.619999,-30.359999,-75.930,-37.064,103.638,,walk
2025-11-01T19:10:04.014478,13902,277,5.061642,6.512528,-1.580173,1.576781,-2.231091,-1.903373,3.484861,8.743619,0.323200,-0.260229,0.149586,0.063225,-11.520000,-25.619999,-30.359999,-75.930,-37.064,103.638,,walk
2025-11-01T19:10:04.063661,13951,278,5.061642,6.512528,-1.580173,1.576781,-2.231091,-1.903373,3.484861,8.743619,0.323200,-0.260229,0.149586,0.063225,-11.520000,-25.619999,-30.359999,-75.930,-37.064,103.638,,walk
2025-11-01T19:10:04.114060,14001,279,5.061642,6.512528,-1.580173,-0.301197,-1.685097,-1.123065,5.362838,8.197625,-0.457108,-0.560163,-0.196775,-0.132863,-11.520000,-25.619999,-30.359999,-75.930,-37.064,103.638,,walk
2025-11-01T19:10:04.164632,14052,280,4.917990,8.214806,-1.917756,-0.301197,-1.685097,-1.123065,5.219186,9.899903,-0.794691,-0.560163,-0.196775,-0.132863,-13.080000,-18.779999,-26.219999,-86.669,-30.242,103.140,,walk
2025-11-01T19:10:04.213641,14101,281,4.917990,8.214806,-1.917756,-0.301197,-1.685097,-1.123065,5.219186,9.899903,-0.794691,-0.560163,-0.196775,-0.132863,-13.080000,-18.779999,-26.219999,-86.669,-30.242,103.140,,walk
2025-11-01T19:10:04.264349,14152,282,5.435137,9.859622,-1.850718,-0.301197,-1.685097,-1.123065,5.736334,11.544719,-0.727653,-0.560163,-0.196775,-0.132863,-13.080000,-18.779999,-26.219999,-88.242,-28.448,100.631,,walk
2025-11-01T19:10:04.314063,14201,283,5.435137,9.859622,-1.850718,0.581780,1.358751,-1.259012,4.853357,8.500871,-0.591705,0.026878,0.356058,-0.649044,-13.080000,-18.779999,-26.219999,-88.242,-28.448,100.631,,walk
2025-11-01T19:10:04.363876,14251,284,5.435137,9.859622,-1.850718,0.581780,1.358751,-1.259012,4.853357,8.500871,-0.591705,0.026878,0.356058,-0.649044,-12.840000,-17.279999,-19.859999,-93.969,-28.448,100.631,,walk
2025-11-01T19:10:04.414200,14301,285,5.435137,9.859622,-1.850718,0.581780,1.358751,-1.259012,4.853357,8.500871,-0.591705,0.026878,0.356058,-0.649044,-12.840000,-17.279999,-19.859999,-93.969,-28.448,100.631,,walk
2025-11-01T19:10:04.463850,14351,286,7.187693,8.403947,1.651999,0.581780,1.358751,-1.259012,6.605912,7.045196,2.911012,0.026878,0.356058,-0.649044,-12.840000,-17.279999,-19.859999,-81.534,-40.004,78.879,,walk
2025-11-01T19:10:04.513803,14401,287,7.187693,8.403947,1.651999,3.413363,-0.640359,2.005870,3.774329,9.044306,-0.353871,-0.367130,-1.763034,-0.379042,-12.840000,-17.279999,-19.859999,-81.534,-40.004,78.879,,walk
2025-11-01T19:10:04.564389,14452,288,7.187693,8.403947,1.651999,3.413363,-0.640359,2.005870,3.774329,9.044306,-0.353871,-0.367130,-1.763034,-0.379042,-4.080000,-14.040000,53.399998,132.924,-40.004,78.879,,walk
2025-11-01T19:10:04.613555,14501,289,3.746926,7.781455,0.608127,3.413363,-0.640359,2.005870,0.333562,8.421813,-1.397743,-0.367130,-1.763034,-0.379042,-4.080000,-14.040000,53.399998,119.511,-25.644,85.531,,walk
2025-11-01T19:10:04.664009,14551,290,3.746926,7.781455,0.608127,-0.153393,-1.213614,0.823062,3.900319,8.995069,-0.214935,-0.099571,1.586951,0.071777,-4.080000,-14.040000,53.399998,119.511,-25.644,85.531,,walk
2025-11-01T19:10:04.715070,14602,291,3.746926,7.781455,0.608127,-0.153393,-1.213614,0.823062,3.900319,8.995069,-0.214935,-0.099571,1.586951,0.071777,-4.080000,-14.040000,53.399998,119.511,-25.644,85.531,,walk
2025-11-01T19:10:04.764607,14652,292,3.746926,7.781455,0.608127,-0.153393,-1.213614,0.823062,3.900319,8.995069,-0.214935,-0.099571,1.586951,0.071777,7.260000,-6.780000,-24.600000,-47.021,-25.644,85.531,,walk
2025-11-01T19:10:04.814089,14701,293,2.401384,9.914688,-0.656011,-0.153393,-1.213614,0.823062,2.554777,11.128302,-1.479073,-0.099571,1.586951,0.071777,7.260000,-6.780000,-24.600000,-60.411,-13.587,93.785,,walk
2025-11-01T19:10:04.863748,14751,294,2.401384,9.914688,-0.656011,-0.743494,0.709164,-1.896241,3.144878,9.205524,1.240229,-0.223577,-0.854066,-0.483500,7.260000,-6.780000,-24.600000,-60.411,-13.587,93.785,,walk
2025-11-01T19:10:04.915111,14802,295,2.401384,9.914688,-0.656011,-0.743494,0.709164,-1.896241,3.144878,9.205524,1.240229,-0.223577,-0.854066,-0.483500,7.260000,-6.780000,-24.600000,-60.411,-13.587,93.785,,walk
2025-11-01T19:10:04.964718,14852,296,3.617639,6.936302,0.883460,-0.743494,0.709164,-1.896241,4.361133,6.227138,2.779701,-0.223577,-0.854066,-0.483500,2.700000,1.560000,-22.260000,-55.798,-27.356,82.741,,walk
2025-11-01T19:10:05.013527,14901,297,3.617639,6.936302,0.883460,0.215617,-2.254761,0.536018,3.402022,9.191063,0.347442,-0.222966,-1.287169,-0.077885,2.700000,1.560000,-22.260000,-55.798,-27.356,82.741,,walk
2025-11-01T19:10:05.063656,14951,298,3.617639,6.936302,0.883460,0.215617,-2.254761,0.536018,3.402022,9.191063,0.347442,-0.222966,-1.287169,-0.077885,2.700000,1.560000,-22.260000,-55.798,-27.356,82.741,,walk
2025-11-01T19:10:05.114369,15002,299,3.617639,6.936302,0.883460,0.215617,-2.254761,0.536018,3.402022,9.191063,0.347442,-0.222966,-1.287169,-0.077885,2.700000,1.560000,-22.260000,-55.798,-27.356,82.741,,walk
2025-11-01T19:10:05.164618,15052,300,4.268862,6.622661,1.007959,0.215617,-2.254761,0.536018,4.053245,8.877422,0.471940,-0.222966,-1.287169,-0.077885,16.859999,1.860000,-6.900000,9.267,-32.507,81.346,,walk
2025-11-01T19:10:05.214967,15102,301,4.268862,6.622661,1.007959,0.760657,-2.534989,1.013745,3.508205,9.157650,-0.005786,0.022602,0.323682,0.314901,16.859999,1.860000,-6.900000,9.267,-32.507,81.346,,walk
2025-11-01T19:10:05.264580,15152,302,4.268862,6.622661,1.007959,0.760657,-2.534989,1.013745,3.508205,9.157650,-0.005786,0.022602,0.323682,0.314901,16.859999,1.860000,-6.900000,9.267,-32.507,81.346,,walk
2025-11-01T19:10:05.313977,15201,303,4.268862,6.622661,1.007959,0.760657,-2.534989,1.013745,3.508205,9.157650,-0.005786,0.022602,0.323682,0.314901,16.859999,1.860000,-6.900000,9.267,-32.507,81.346,,walk
2025-11-01T19:10:05.364212,15251,304,4.192247,9.263466,0.323217,0.760657,-2.534989,1.013745,3.431591,11.798455,-0.690528,0.022602,0.323682,0.314901,3.900000,1.920000,-16.980000,-52.844,-24.336,88.002,,walk
2025-11-01T19:10:05.413673,15301,305,4.192247,9.263466,0.323217,0.455912,0.268088,-0.813959,3.736335,8.995378,1.137176,0.037263,1.202717,-0.193950,3.900000,1.920000,-16.980000,-52.844,-24.336,88.002,,walk
2025-11-01T19:10:05.464013,15351,306,4.192247,9.263466,0.323217,0.455912,0.268088,-0.813959,3.736335,8.995378,1.137176,0.037263,1.202717,-0.193950,3.900000,1.920000,-16.980000,-52.844,-24.336,88.002,,walk
2025-11-01T19:10:05.513921,15401,307,4.630386,10.532393,-3.988740,0.455912,0.268088,-0.813959,4.174474,10.264304,-3.174781,0.037263,1.202717,-0.193950,3.900000,1.920000,-16.980000,-51.429,-22.349,110.742,,walk
2025-11-01T19:10:05.563350,15451,308,4.630386,10.532393,-3.988740,0.999019,1.434959,-4.457904,3.631367,9.097433,0.469164,-2.452624,-2.940782,1.011287,-11.280000,2.880000,-29.699999,-88.281,-22.349,110.742,,walk
2025-11-01T19:10:05.613541,15501,309,4.630386,10.532393,-3.988740,0.999019,1.434959,-4.457904,3.631367,9.097433,0.469164,-2.452624,-2.940782,1.011287,-11.280000,2.880000,-29.699999,-88.281,-22.349,110.742,,walk
2025-11-01T19:10:05.663530,15551,310,4.630386,10.532393,-3.988740,0.999019,1.434959,-4.457904,3.631367,9.097433,0.469164,-2.452624,-2.940782,1.011287,-11.280000,2.880000,-29.699999,-88.281,-22.349,110.742,,walk
2025-11-01T19:10:05.713571,15601,311,2.238579,8.839692,5.550059,0.999019,1.434959,-4.457904,1.239560,7.404733,10.007963,-2.452624,-2.940782,1.011287,-11.280000,2.880000,-29.699999,-99.686,-12.105,57.877,,walk
2025-11-01T19:10:05.765142,15652,312,2.238579,8.839692,5.550059,-1.805212,-0.080913,6.040532,4.043791,8.920605,-0.490473,3.660305,-0.224875,0.667981,-21.000000,2.040000,-14.160000,-136.719,-12.105,57.877,,walk
2025-11-01T19:10:05.813673,15701,313,2.238579,8.839692,5.550059,-1.805212,-0.080913,6.040532,4.043791,8.920605,-0.490473,3.660305,-0.224875,0.667981,-21.000000,2.040000,-14.160000,-136.719,-12.105,57.877,,walk
2025-11-01T19:10:05.864344,15752,314,3.883395,8.605061,-1.019930,-1.805212,-0.080913,6.040532,5.688607,8.685973,-7.060462,3.660305,-0.224875,0.667981,-21.000000,2.040000,-14.160000,-122.341,-24.140,96.760,,walk
2025-11-01T19:10:05.914398,15802,315,3.883395,8.605061,-1.019930,-1.805212,-0.080913,6.040532,5.688607,8.685973,-7.060462,3.660305,-0.224875,0.667981,-21.000000,2.040000,-14.160000,-122.341,-24.140,96.760,,walk
2025-11-01T19:10:05.964103,15851,316,3.883395,8.605061,-1.019930,-0.232988,-0.285130,-1.455708,4.116383,8.890190,0.435778,-1.224174,4.225278,0.214108,-17.699999,3.960000,-18.000000,-110.889,-24.140,96.760,,walk
2025-11-01T19:10:06.014190,15901,317,3.883395,8.605061,-1.019930,-0.232988,-0.285130,-1.455708,4.116383,8.890190,0.435778,-1.224174,4.225278,0.214108,-17.699999,3.960000,-18.000000,-110.889,-24.140,96.760,,walk
2025-11-01T19:10:06.064692,15952,318,3.191471,9.378387,-0.677559,-0.232988,-0.285130,-1.455708,3.424459,9.663517,0.778149,-1.224174,4.225278,0.214108,-17.699999,3.960000,-18.000000,-116.115,-18.748,94.132,,walk
2025-11-01T19:10:06.114384,16002,319,3.191471,9.378387,-0.677559,-1.011435,0.553301,-1.467221,4.202906,8.825087,0.789662,-0.212581,-0.803364,-0.062003,-17.699999,3.960000,-18.000000,-116.115,-18.748,94.132,,walk
2025-11-01T19:10:06.163621,16051,320,3.191471,9.378387,-0.677559,-1.011435,0.553301,-1.467221,4.202906,8.825087,0.789662,-0.212581,-0.803364,-0.062003,-14.700000,8.040000,-25.139999,-101.832,-18.748,94.132,,walk
2025-11-01T19:10:06.213668,16101,321,3.191471,9.378387,-0.677559,-1.011435,0.553301,-1.467221,4.202906,8.825087,0.789662,-0.212581,-0.803364,-0.062003,-14.700000,8.040000,-25.139999,-101.832,-18.748,94.132,,walk
2025-11-01T19:10:06.264999,16152,322,5.353734,7.714417,1.297657,-1.011435,0.553301,-1.467221,6.365170,7.161116,2.764879,-0.212581,-0.803364,-0.062003,-14.700000,8.040000,-25.139999,-86.055,-34.387,80.452,,walk
2025-11-01T19:10:06.315535,16203,323,5.353734,7.714417,1.297657,1.241723,-1.186317,1.493415,4.112011,8.900734,-0.195758,0.371406,-1.573054,-0.166461,-14.700000,8.040000,-25.139999,-86.055,-34.387,80.452,,walk
2025-11-01T19:10:06.364053,16251,324,5.353734,7.714417,1.297657,1.241723,-1.186317,1.493415,4.112011,8.900734,-0.195758,0.371406,-1.573054,-0.166461,-18.000000,3.540000,-17.279999,-101.667,-34.387,80.452,,walk
2025-11-01T19:10:06.414401,16302,325,4.247314,6.419154,-1.242591,1.241723,-1.186317,1.493415,3.005591,7.605471,-2.736006,0.371406,-1.573054,-0.166461,-18.000000,3.540000,-17.279999,-103.771,-33.008,100.956,,walk
2025-11-01T19:10:06.464298,16352,326,4.247314,6.419154,-1.242591,0.156280,-2.448467,-0.349013,4.091034,8.867621,-0.893578,-0.294437,0.191735,0.098044,-18.000000,3.540000,-17.279999,-103.771,-33.008,100.956,,walk
2025-11-01T19:10:06.514723,16402,327,4.247314,6.419154,-1.242591,0.156280,-2.448467,-0.349013,4.091034,8.867621,-0.893578,-0.294437,0.191735,0.098044,-18.000000,3.540000,-17.279999,-103.771,-33.008,100.956,,walk
2025-11-01T19:10:06.564913,16452,328,4.247314,6.419154,-1.242591,0.156280,-2.448467,-0.349013,4.091034,8.867621,-0.893578,-0.294437,0.191735,0.098044,-17.459999,2.220000,-17.459999,-102.422,-33.008,100.956,,walk
2025-11-01T19:10:06.614741,16502,329,3.378219,8.772655,-1.558625,0.156280,-2.448467,-0.349013,3.221939,11.221122,-1.209612,-0.294437,0.191735,0.098044,-17.459999,2.220000,-17.459999,-114.956,-20.764,100.075,,walk
2025-11-01T19:10:06.664047,16551,330,3.378219,8.772655,-1.558625,-0.569287,-0.204386,-1.558970,3.947506,8.977040,0.000345,-0.383013,1.482494,-0.465785,-17.459999,2.220000,-17.459999,-114.956,-20.764,100.075,,walk
2025-11-01T19:10:06.714278,16601,331,3.378219,8.772655,-1.558625,-0.569287,-0.204386,-1.558970,3.947506,8.977040,0.000345,-0.383013,1.482494,-0.465785,-17.459999,2.220000,-17.459999,-114.956,-20.764,100.075,,walk
2025-11-01T19:10:06.764490,16652,332,5.686528,12.641685,-2.616863,-0.569287,-0.204386,-1.558970,6.255815,12.846070,-1.057892,-0.383013,1.482494,-0.465785,-13.740000,2.040000,-25.619999,-94.592,-23.773,101.695,,walk
2025-11-01T19:10:06.814834,16702,333,5.686528,12.641685,-2.616863,2.108840,3.511713,-2.734883,3.577688,9.129972,0.118020,-0.914465,-1.559004,0.332005,-13.740000,2.040000,-25.619999,-94.592,-23.773,101.695,,walk
2025-11-01T19:10:06.864949,16752,334,5.686528,12.641685,-2.616863,2.108840,3.511713,-2.734883,3.577688,9.129972,0.118020,-0.914465,-1.559004,0.332005,-13.740000,2.040000,-25.619999,-94.592,-23.773,101.695,,walk
2025-11-01T19:10:06.913813,16801,335,5.686528,12.641685,-2.616863,2.108840,3.511713,-2.734883,3.577688,9.129972,0.118020,-0.914465,-1.559004,0.332005,-13.740000,2.040000,-25.619999,-94.592,-23.773,101.695,,walk
2025-11-01T19:10:06.963801,16851,336,2.334347,8.186075,1.896208,2.108840,3.511713,-2.734883,0.225507,4.674362,4.631091,-0.914465,-1.559004,0.332005,-13.799999,-0.180000,-23.639999,-105.145,-15.526,76.958,,walk
2025-11-01T19:10:07.013611,16901,337,2.334347,8.186075,1.896208,-1.194506,-0.963598,1.869807,3.528853,9.149673,0.026400,0.385456,0.379271,0.357051,-13.799999,-0.180000,-23.639999,-105.145,-15.526,76.958,,walk
2025-11-01T19:10:07.064306,16952,338,2.334347,8.186075,1.896208,-1.194506,-0.963598,1.869807,3.528853,9.149673,0.026400,0.385456,0.379271,0.357051,-13.799999,-0.180000,-23.639999,-105.145,-15.526,76.958,,walk
2025-11-01T19:10:07.114256,17001,339,2.334347,8.186075,1.896208,-1.194506,-0.963598,1.869807,3.528853,9.149673,0.026400,0.385456,0.379271,0.357051,-13.799999,-0.180000,-23.639999,-105.145,-15.526,76.958,,walk
2025-11-01T19:10:07.165014,17052,340,2.329558,8.736741,0.837971,-1.194506,-0.963598,1.869807,3.524064,9.700339,-1.031837,0.385456,0.379271,0.357051,-12.599999,-0.300000,-26.099998,-100.964,-14.865,84.521,,walk
2025-11-01T19:10:07.214798,17102,341,2.329558,8.736741,0.837971,-1.558944,-0.262973,0.603970,3.888503,8.999714,0.234001,-0.034208,2.016390,0.057116,-12.599999,-0.300000,-26.099998,-100.964,-14.865,84.521,,walk
2025-11-01T19:10:07.265554,17153,342,2.329558,8.736741,0.837971,-1.558944,-0.262973,0.603970,3.888503,8.999714,0.234001,-0.034208,2.016390,0.057116,-12.599999,-0.300000,-26.099998,-100.964,-14.865,84.521,,walk
2025-11-01T19:10:07.315609,17203,343,3.150769,11.808502,1.458069,-1.558944,-0.262973,0.603970,4.709714,12.071475,0.854099,-0.034208,2.016390,0.057116,-12.599999,-0.300000,-26.099998,-101.032,-14.832,82.961,,walk
2025-11-01T19:10:07.364931,17252,344,3.150769,11.808502,1.458069,-0.213064,2.749360,-0.211262,3.363833,9.059142,1.669331,0.046426,0.466014,-0.507324,-2.400000,1.500000,-36.419998,-78.912,-14.832,82.961,,walk
2025-11-01T19:10:07.413892,17301,345,3.150769,11.808502,1.458069,-0.213064,2.749360,-0.211262,3.363833,9.059142,1.669331,0.046426,0.466014,-0.507324,-2.400000,1.500000,-36.419998,-78.912,-14.832,82.961,,walk
2025-11-01T19:10:07.465285,17352,346,3.150769,11.808502,1.458069,-0.213064,2.749360,-0.211262,3.363833,9.059142,1.669331,0.046426,0.466014,-0.507324,-2.400000,1.500000,-36.419998,-78.912,-14.832,82.961,,walk
2025-11-01T19:10:07.514214,17401,347,5.971438,7.625832,2.899378,-0.213064,2.749360,-0.211262,6.184502,4.876472,3.110640,0.046426,0.466014,-0.507324,-2.400000,1.500000,-36.419998,-56.280,-36.202,69.183,,walk
2025-11-01T19:10:07.564976,17452,348,5.971438,7.625832,2.899378,2.178883,-1.392206,2.219903,3.792556,9.018038,0.679476,0.910189,-2.705599,0.608727,-6.060000,4.680000,-32.219997,-64.247,-36.202,69.183,,walk
2025-11-01T19:10:07.614719,17502,349,5.971438,7.625832,2.899378,2.178883,-1.392206,2.219903,3.792556,9.018038,0.679476,0.910189,-2.705599,0.608727,-6.060000,4.680000,-32.219997,-64.247,-36.202,69.183,,walk
2025-11-01T19:10:07.664070,17551,350,4.469975,6.977003,-1.256956,2.178883,-1.392206,2.219903,2.291092,8.369209,-3.476859,0.910189,-2.705599,0.608727,-6.060000,4.680000,-32.219997,-67.543,-32.232,100.213,,walk
2025-11-01T19:10:07.714384,17602,351,4.469975,6.977003,-1.256956,2.178883,-1.392206,2.219903,2.291092,8.369209,-3.476859,0.910189,-2.705599,0.608727,-6.060000,4.680000,-32.219997,-67.543,-32.232,100.213,,walk
2025-11-01T19:10:07.764636,17652,352,4.469975,6.977003,-1.256956,0.311229,-1.898427,-1.575699,4.158746,8.875430,0.318743,-0.852157,1.405525,0.076053,-18.539999,6.960000,-16.139999,-107.876,-32.232,100.213,,walk
2025-11-01T19:10:07.814662,17702,353,4.469975,6.977003,-1.256956,0.311229,-1.898427,-1.575699,4.158746,8.875430,0.318743,-0.852157,1.405525,0.076053,-18.539999,6.960000,-16.139999,-107.876,-32.232,100.213,,walk
2025-11-01T19:10:07.864795,17752,354,5.396830,15.531785,-0.471658,0.311229,-1.898427,-1.575699,5.085601,17.430212,1.104041,-0.852157,1.405525,0.076053,-18.539999,6.960000,-16.139999,-120.064,-19.153,91.739,,walk
2025-11-01T19:10:07.914331,17802,355,5.396830,15.531785,-0.471658,2.167576,6.278584,-0.818627,3.229254,9.253201,0.346969,0.115454,0.634613,-0.368657,-18.539999,6.960000,-16.139999,-120.064,-19.153,91.739,,walk
2025-11-01T19:10:07.964565,17852,356,5.396830,15.531785,-0.471658,2.167576,6.278584,-0.818627,3.229254,9.253201,0.346969,0.115454,0.634613,-0.368657,-9.240000,-7.680000,-31.139999,-87.392,-19.153,91.739,,walk
2025-11-01T19:10:08.014374,17902,357,5.396830,15.531785,-0.471658,2.167576,6.278584,-0.818627,3.229254,9.253201,0.346969,0.115454,0.634613,-0.368657,-9.240000,-7.680000,-31.139999,-87.392,-19.153,91.739,,walk
2025-11-01T19:10:08.064611,17952,358,3.356671,8.066365,2.252944,2.167576,6.278584,-0.818627,1.189095,1.787782,3.071570,0.115454,0.634613,-0.368657,-9.240000,-7.680000,-31.139999,-84.095,-21.841,74.395,,walk
2025-11-01T19:10:08.114236,18001,359,3.356671,8.066365,2.252944,0.666507,-1.341221,1.596915,2.690164,9.407586,0.656029,-0.191201,-1.352532,-0.032070,-9.240000,-7.680000,-31.139999,-84.095,-21.841,74.395,,walk
2025-11-01T19:10:08.163737,18051,360,3.356671,8.066365,2.252944,0.666507,-1.341221,1.596915,2.690164,9.407586,0.656029,-0.191201,-1.352532,-0.032070,-15.540000,-5.460000,-22.379999,-104.197,-21.841,74.395,,walk
2025-11-01T19:10:08.214161,18101,361,2.990358,8.444649,2.013524,0.666507,-1.341221,1.596915,2.323851,9.785870,0.416609,-0.191201,-1.352532,-0.032070,-15.540000,-5.460000,-22.379999,-106.986,-19.007,76.589,,walk
2025-11-01T19:10:08.263760,18151,362,2.990358,8.444649,2.013524,-0.197397,-0.802573,1.308395,3.187755,9.247222,0.705129,0.543059,1.836795,0.251982,-15.540000,-5.460000,-22.379999,-106.986,-19.007,76.589,,walk
2025-11-01T19:10:08.314671,18202,363,2.990358,8.444649,2.013524,-0.197397,-0.802573,1.308395,3.187755,9.247222,0.705129,0.543059,1.836795,0.251982,-15.540000,-5.460000,-22.379999,-106.986,-19.007,76.589,,walk
2025-11-01T19:10:08.365290,18252,364,2.990358,8.444649,2.013524,-0.197397,-0.802573,1.308395,3.187755,9.247222,0.705129,0.543059,1.836795,0.251982,-16.859999,-4.800000,-29.160000,-101.726,-19.007,76.589,,walk
2025-11-01T19:10:08.413829,18301,365,1.647211,11.913847,-0.227449,-0.197397,-0.802573,1.308395,1.844608,12.716420,-1.535844,0.543059,1.836795,0.251982,-16.859999,-4.800000,-29.160000,-112.111,-7.870,91.094,,walk
2025-11-01T19:10:08.463856,18351,366,1.647211,11.913847,-0.227449,-1.035793,2.570953,-1.524334,2.683004,9.342894,1.296884,-0.108123,-1.684843,-0.159741,-16.859999,-4.800000,-29.160000,-112.111,-7.870,91.094,,walk
2025-11-01T19:10:08.515621,18403,367,1.647211,11.913847,-0.227449,-1.035793,2.570953,-1.524334,2.683004,9.342894,1.296884,-0.108123,-1.684843,-0.159741,-16.859999,-4.800000,-29.160000,-112.111,-7.870,91.094,,walk
2025-11-01T19:10:08.564003,18451,368,4.395754,10.508451,0.842759,-1.035793,2.570953,-1.524334,5.431547,7.937497,2.367093,-0.108123,-1.684843,-0.159741,-13.139999,-6.600000,-31.080000,-90.289,-22.635,85.415,,walk
2025-11-01T19:10:08.614388,18502,369,4.395754,10.508451,0.842759,1.345659,1.201400,0.346894,3.050095,9.307051,0.495865,-0.169821,-1.882152,1.229977,-13.139999,-6.600000,-31.080000,-90.289,-22.635,85.415,,walk
2025-11-01T19:10:08.663876,18551,370,4.395754,10.508451,0.842759,1.345659,1.201400,0.346894,3.050095,9.307051,0.495865,-0.169821,-1.882152,1.229977,-13.139999,-6.600000,-31.080000,-90.289,-22.635,85.415,,walk
2025-11-01T19:10:08.713888,18601,371,4.395754,10.508451,0.842759,1.345659,1.201400,0.346894,3.050095,9.307051,0.495865,-0.169821,-1.882152,1.229977,-13.139999,-6.600000,-31.080000,-90.289,-22.635,85.415,,walk
2025-11-01T19:10:08.764480,18652,372,4.537012,6.754342,-1.673547,1.345659,1.201400,0.346894,3.191353,5.552942,-2.020441,-0.169821,-1.882152,1.229977,-22.980000,-8.160000,-12.960000,-116.249,-33.104,103.916,,walk
2025-11-01T19:10:08.813648,18701,373,4.537012,6.754342,-1.673547,1.479246,-2.563238,-1.622670,3.057766,9.317580,-0.050877,-0.274889,1.149572,0.036346,-22.980000,-8.160000,-12.960000,-116.249,-33.104,103.916,,walk
2025-11-01T19:10:08.864009,18751,374,4.537012,6.754342,-1.673547,1.479246,-2.563238,-1.622670,3.057766,9.317580,-0.050877,-0.274889,1.149572,0.036346,-22.980000,-8.160000,-12.960000,-116.249,-33.104,103.916,,walk
2025-11-01T19:10:08.914302,18802,375,4.537012,6.754342,-1.673547,1.479246,-2.563238,-1.622670,3.057766,9.317580,-0.050877,-0.274889,1.149572,0.036346,-22.980000,-8.160000,-12.960000,-116.249,-33.104,103.916,,walk
2025-11-01T19:10:08.964819,18852,376,3.270479,13.817237,0.344765,1.479246,-2.563238,-1.622670,1.791234,16.380475,1.967435,-0.274889,1.149572,0.036346,-19.559999,-9.660000,-18.959999,-122.863,-13.313,88.571,,walk
2025-11-01T19:10:09.013846,18901,377,3.270479,13.817237,0.344765,0.592989,4.403108,0.957229,2.677491,9.414129,-0.612464,2.904664,0.986471,0.485332,-19.559999,-9.660000,-18.959999,-122.863,-13.313,88.571,,walk
2025-11-01T19:10:09.063871,18951,378,3.270479,13.817237,0.344765,0.592989,4.403108,0.957229,2.677491,9.414129,-0.612464,2.904664,0.986471,0.485332,-19.559999,-9.660000,-18.959999,-122.863,-13.313,88.571,,walk
2025-11-01T19:10:09.114331,19002,379,5.739201,8.937854,3.878607,0.592989,4.403108,0.957229,5.146212,4.534746,2.921378,2.904664,0.986471,0.485332,-19.559999,-9.660000,-18.959999,-109.652,-30.500,66.541,,walk
2025-11-01T19:10:09.164283,19051,380,5.739201,8.937854,3.878607,2.751258,-0.394103,3.482629,2.987943,9.331957,0.395978,-0.457538,-1.431944,-0.286190,-20.639999,-6.900000,-17.820000,-112.646,-30.500,66.541,,walk
2025-11-01T19:10:09.213787,19101,381,5.739201,8.937854,3.878607,2.751258,-0.394103,3.482629,2.987943,9.331957,0.395978,-0.457538,-1.431944,-0.286190,-20.639999,-6.900000,-17.820000,-112.646,-30.500,66.541,,walk
2025-11-01T19:10:09.264699,19152,382,5.739201,8.937854,3.878607,2.751258,-0.394103,3.482629,2.987943,9.331957,0.395978,-0.457538,-1.431944,-0.286190,-20.639999,-6.900000,-17.820000,-112.646,-30.500,66.541,,walk
2025-11-01T19:10:09.314899,19202,383,2.487576,7.087136,1.055843,2.751258,-0.394103,3.482629,-0.263682,7.481239,-2.426786,-0.457538,-1.431944,-0.286190,-20.639999,-6.900000,-17.820000,-121.445,-19.145,81.526,,walk
2025-11-01T19:10:09.363971,19251,384,2.487576,7.087136,1.055843,-0.662706,-2.199707,1.069462,3.150282,9.286843,-0.013619,0.425773,1.211269,-0.159741,-16.980000,-4.380000,-15.179999,-120.148,-19.145,81.526,,walk
2025-11-01T19:10:09.413852,19301,385,2.487576,7.087136,1.055843,-0.662706,-2.199707,1.069462,3.150282,9.286843,-0.013619,0.425773,1.211269,-0.159741,-16.980000,-4.380000,-15.179999,-120.148,-19.145,81.526,,walk
2025-11-01T19:10:09.464047,19351,386,-0.090980,12.426206,-1.060631,-0.662706,-2.199707,1.069462,0.571727,14.625913,-2.130093,0.425773,1.211269,-0.159741,-16.980000,-4.380000,-15.179999,-138.027,0.418,94.879,,walk
2025-11-01T19:10:09.514283,19401,387,-0.090980,12.426206,-1.060631,-2.064793,2.824790,-1.355646,1.973813,9.601416,0.295014,0.177762,0.392710,-0.175013,-16.980000,-4.380000,-15.179999,-138.027,0.418,94.879,,walk
2025-11-01T19:10:09.564611,19452,388,-0.090980,12.426206,-1.060631,-2.064793,2.824790,-1.355646,1.973813,9.601416,0.295014,0.177762,0.392710,-0.175013,-8.760000,-7.380000,-25.199999,-109.207,0.418,94.879,,walk
2025-11-01T19:10:09.613942,19501,389,-0.090980,12.426206,-1.060631,-2.064793,2.824790,-1.355646,1.973813,9.601416,0.295014,0.177762,0.392710,-0.175013,-8.760000,-7.380000,-25.199999,-109.207,0.418,94.879,,walk
2025-11-01T19:10:09.663799,19551,390,4.381389,10.932224,1.656788,-2.064793,2.824790,-1.355646,6.446182,8.107434,3.012433,0.177762,0.392710,-0.175013,-8.760000,-7.380000,-25.199999,-87.416,-21.616,81.382,,walk
2025-11-01T19:10:09.715148,19602,391,4.381389,10.932224,1.656788,1.792514,1.542276,0.518010,2.588875,9.389948,1.138778,-0.390343,-1.511968,1.092533,-8.760000,-7.380000,-25.199999,-87.416,-21.616,81.382,,walk
2025-11-01T19:10:09.763548,19651,392,4.381389,10.932224,1.656788,1.792514,1.542276,0.518010,2.588875,9.389948,1.138778,-0.390343,-1.511968,1.092533,-18.119999,-5.640000,-18.180000,-114.310,-21.616,81.382,,walk
2025-11-01T19:10:09.814508,19702,393,4.381389,10.932224,1.656788,1.792514,1.542276,0.518010,2.588875,9.389948,1.138778,-0.390343,-1.511968,1.092533,-18.119999,-5.640000,-18.180000,-114.310,-21.616,81.382,,walk
2025-11-01T19:10:09.864892,19752,394,2.978387,7.386412,0.129287,1.792514,1.542276,0.518010,1.185873,5.844135,-0.388723,-0.390343,-1.511968,1.092533,-18.119999,-5.640000,-18.180000,-113.037,-21.957,88.997,,walk
2025-11-01T19:10:09.914519,19802,395,2.978387,7.386412,0.129287,0.070201,-1.970728,-0.266228,2.908186,9.357140,0.395515,-0.229074,1.082988,-0.175624,-18.119999,-5.640000,-18.180000,-113.037,-21.957,88.997,,walk
2025-11-01T19:10:09.965434,19853,396,2.978387,7.386412,0.129287,0.070201,-1.970728,-0.266228,2.908186,9.357140,0.395515,-0.229074,1.082988,-0.175624,-16.320000,-6.480000,-15.059999,-115.471,-21.957,88.997,,walk
2025-11-01T19:10:10.013720,19901,397,2.013524,12.083836,1.599327,0.070201,-1.970728,-0.266228,1.943322,14.054564,1.865555,-0.229074,1.082988,-0.175624,-16.320000,-6.480000,-15.059999,-129.566,-9.380,82.461,,walk
2025-11-01T19:10:10.065113,19952,398,2.013524,12.083836,1.599327,-0.274337,2.548688,1.469708,2.287860,9.535148,0.129619,4.479475,1.330999,0.359494,-16.320000,-6.480000,-15.059999,-129.566,-9.380,82.461,,walk
2025-11-01T19:10:10.114586,20002,399,2.013524,12.083836,1.599327,-0.274337,2.548688,1.469708,2.287860,9.535148,0.129619,4.479475,1.330999,0.359494,-16.320000,-6.480000,-15.059999,-129.566,-9.380,82.461,,walk
2025-11-01T19:10:10.163561,20051,400,2.013524,12.083836,1.599327,-0.274337,2.548688,1.469708,2.287860,9.535148,0.129619,4.479475,1.330999,0.359494,-17.279999,-9.420000,-17.459999,-127.316,-9.380,82.461,,walk
2025-11-01T19:10:10.214970,20102,401,6.471827,14.729728,0.232238,-0.274337,2.548688,1.469708,6.746163,12.181040,-1.237471,4.479475,1.330999,0.359494,-17.279999,-9.420000,-17.459999,-111.114,-23.717,89.097,,walk
2025-11-01T19:10:10.265146,20152,402,6.471827,14.729728,0.232238,3.572540,5.361770,0.158260,2.899287,9.367958,0.073978,-1.369560,-1.086806,-0.260534,-17.279999,-9.420000,-17.459999,-111.114,-23.717,89.097,,walk
2025-11-01T19:10:10.314308,20202,403,6.471827,14.729728,0.232238,3.572540,5.361770,0.158260,2.899287,9.367958,0.073978,-1.369560,-1.086806,-0.260534,-17.279999,-9.420000,-17.459999,-111.114,-23.717,89.097,,walk
2025-11-01T19:10:10.364222,20251,404,1.695095,5.930737,1.115698,3.572540,5.361770,0.158260,-1.877445,0.568967,0.957438,-1.369560,-1.086806,-0.260534,-17.699999,-3.180000,-10.860000,-134.422,-15.689,79.346,,walk
2025-11-01T19:10:10.414907,20302,405,1.695095,5.930737,1.115698,-1.303614,-3.405918,1.046405,2.998709,9.336655,0.069293,0.327424,0.790994,0.085827,-17.699999,-3.180000,-10.860000,-134.422,-15.689,79.346,,walk
2025-11-01T19:10:10.464375,20352,406,1.695095,5.930737,1.115698,-1.303614,-3.405918,1.046405,2.998709,9.336655,0.069293,0.327424,0.790994,0.085827,-17.699999,-3.180000,-10.860000,-134.422,-15.689,79.346,,walk
2025-11-01T19:10:10.514691,20402,407,1.695095,5.930737,1.115698,-1.303614,-3.405918,1.046405,2.998709,9.336655,0.069293,0.327424,0.790994,0.085827,-17.699999,-3.180000,-10.860000,-134.422,-15.689,79.346,,walk
2025-11-01T19:10:10.563862,20451,408,-1.539472,12.265795,-0.452504,-1.303614,-3.405918,1.046405,-0.235857,15.671712,-1.498909,0.327424,0.790994,0.085827,-15.719999,-4.380000,-13.320000,-146.517,7.149,92.113,,walk
2025-11-01T19:10:10.615148,20502,409,-1.539472,12.265795,-0.452504,-3.390872,2.653306,-1.037823,1.851400,9.612489,0.585319,0.556498,1.732337,-0.110872,-15.719999,-4.380000,-13.320000,-146.517,7.149,92.113,,walk
2025-11-01T19:10:10.663790,20551,410,-1.539472,12.265795,-0.452504,-3.390872,2.653306,-1.037823,1.851400,9.612489,0.585319,0.556498,1.732337,-0.110872,-15.719999,-4.380000,-13.320000,-146.517,7.149,92.113,,walk
2025-11-01T19:10:10.714350,20602,411,-1.539472,12.265795,-0.452504,-3.390872,2.653306,-1.037823,1.851400,9.612489,0.585319,0.556498,1.732337,-0.110872,-15.719999,-4.380000,-13.320000,-146.517,7.149,92.113,,walk
2025-11-01T19:10:10.764872,20652,412,4.577713,13.017574,1.410185,-3.390872,2.653306,-1.037823,7.968585,10.364268,2.448008,0.556498,1.732337,-0.110872,-13.860000,-7.080000,-18.539999,-108.199,-19.270,83.817,,walk
2025-11-01T19:10:10.814382,20702,413,4.577713,13.017574,1.410185,1.869505,3.610613,0.823235,2.708209,9.406961,0.586950,0.322537,-1.513800,1.771815,-13.860000,-7.080000,-18.539999,-108.199,-19.270,83.817,,walk
2025-11-01T19:10:10.864615,20752,414,4.577713,13.017574,1.410185,1.869505,3.610613,0.823235,2.708209,9.406961,0.586950,0.322537,-1.513800,1.771815,-13.860000,-7.080000,-18.539999,-108.199,-19.270,83.817,,walk
2025-11-01T19:10:10.913735,20801,415,3.136404,6.622661,0.007183,1.869505,3.610613,0.823235,1.266899,3.012048,-0.816052,0.322537,-1.513800,1.771815,-13.860000,-7.080000,-18.539999,-101.443,-25.342,89.938,,walk
2025-11-01T19:10:10.963765,20851,416,3.136404,6.622661,0.007183,-0.124133,-2.622221,0.273683,3.260537,9.244883,-0.266500,0.272446,0.949819,-0.257480,-21.900000,-4.680000,-7.320000,-136.185,-25.342,89.938,,walk
2025-11-01T19:10:11.014148,20901,417,3.136404,6.622661,0.007183,-0.124133,-2.622221,0.273683,3.260537,9.244883,-0.266500,0.272446,0.949819,-0.257480,-21.900000,-4.680000,-7.320000,-136.185,-25.342,89.938,,walk
2025-11-01T19:10:11.064396,20952,418,3.136404,6.622661,0.007183,-0.124133,-2.622221,0.273683,3.260537,9.244883,-0.266500,0.272446,0.949819,-0.257480,-21.900000,-4.680000,-7.320000,-136.185,-25.342,89.938,,walk
2025-11-01T19:10:11.113880,21001,419,2.367866,12.316072,0.361524,-0.124133,-2.622221,0.273683,2.491998,14.938294,0.087842,0.272446,0.949819,-0.257480,-21.900000,-4.680000,-7.320000,-150.948,-10.878,88.319,,walk
2025-11-01T19:10:11.163705,21051,420,2.367866,12.316072,0.361524,0.246871,2.741800,0.293704,2.120995,9.574272,0.067821,2.285247,2.119015,0.391259,-16.440001,-7.800000,-14.460000,-128.170,-10.878,88.319,,walk
2025-11-01T19:10:11.215299,21103,421,2.367866,12.316072,0.361524,0.246871,2.741800,0.293704,2.120995,9.574272,0.067821,2.285247,2.119015,0.391259,-16.440001,-7.800000,-14.460000,-128.170,-10.878,88.319,,walk
2025-11-01T19:10:11.264680,21152,422,4.414908,10.793361,0.416591,0.246871,2.741800,0.293704,4.168037,8.051560,0.122887,2.285247,2.119015,0.391259,-16.440001,-7.800000,-14.460000,-116.807,-22.232,87.790,,walk
2025-11-01T19:10:11.314160,21201,423,4.414908,10.793361,0.416591,0.246871,2.741800,0.293704,4.168037,8.051560,0.122887,2.285247,2.119015,0.391259,-16.440001,-7.800000,-14.460000,-116.807,-22.232,87.790,,walk
2025-11-01T19:10:11.364142,21251,424,4.414908,10.793361,0.416591,2.325634,1.247197,-0.405447,2.089274,9.546164,0.822038,-0.608422,-1.036104,-0.569632,-17.160000,-6.120000,-15.360000,-116.213,-22.232,87.790,,walk
2025-11-01T19:10:11.414225,21301,425,4.414908,10.793361,0.416591,2.325634,1.247197,-0.405447,2.089274,9.546164,0.822038,-0.608422,-1.036104,-0.569632,-17.160000,-6.120000,-15.360000,-116.213,-22.232,87.790,,walk
2025-11-01T19:10:11.464110,21351,426,0.749385,6.984186,1.343147,2.325634,1.247197,-0.405447,-1.576249,5.736989,1.748594,-0.608422,-1.036104,-0.569632,-17.160000,-6.120000,-15.360000,-134.715,-6.015,79.114,,walk
2025-11-01T19:10:11.513833,21401,427,0.749385,6.984186,1.343147,-1.532344,-2.529231,0.665962,2.281729,9.513416,0.677185,0.088575,0.993191,0.313679,-17.160000,-6.120000,-15.360000,-134.715,-6.015,79.114,,walk
2025-11-01T19:10:11.565321,21453,428,0.749385,6.984186,1.343147,-1.532344,-2.529231,0.665962,2.281729,9.513416,0.677185,0.088575,0.993191,0.313679,-17.520000,-5.100000,-12.540000,-140.912,-6.015,79.114,,walk
2025-11-01T19:10:11.615121,21502,429,0.749385,6.984186,1.343147,-1.532344,-2.529231,0.665962,2.281729,9.513416,0.677185,0.088575,0.993191,0.313679,-17.520000,-5.100000,-12.540000,-140.912,-6.015,79.114,,walk
2025-11-01T19:10:11.664022,21551,430,0.500388,11.154885,0.703895,-1.532344,-2.529231,0.665962,2.032732,13.684116,0.037933,0.088575,0.993191,0.313679,-17.520000,-5.100000,-12.540000,-142.577,-2.563,86.389,,walk
2025-11-01T19:10:11.714746,21602,431,0.500388,11.154885,0.703895,-1.679989,1.644248,-0.277829,2.180377,9.510637,0.981724,1.080010,1.431181,-0.038179,-17.520000,-5.100000,-12.540000,-142.577,-2.563,86.389,,walk
2025-11-01T19:10:11.764781,21652,432,0.500388,11.154885,0.703895,-1.679989,1.644248,-0.277829,2.180377,9.510637,0.981724,1.080010,1.431181,-0.038179,-15.540000,-6.060000,-20.340000,-125.365,-2.563,86.389,,walk
2025-11-01T19:10:11.814545,21702,433,4.323928,13.999197,1.211466,-1.679989,1.644248,-0.277829,6.003918,12.354949,1.489295,1.080010,1.431181,-0.038179,-15.540000,-6.060000,-20.340000,-110.762,-17.104,85.054,,walk
2025-11-01T19:10:11.865313,21753,434,4.323928,13.999197,1.211466,2.175935,4.439420,0.802937,2.147994,9.559777,0.408529,-0.193033,-1.076421,0.953866,-15.540000,-6.060000,-20.340000,-110.762,-17.104,85.054,,walk
2025-11-01T19:10:11.913737,21801,435,4.323928,13.999197,1.211466,2.175935,4.439420,0.802937,2.147994,9.559777,0.408529,-0.193033,-1.076421,0.953866,-15.540000,-6.060000,-20.340000,-110.762,-17.104,85.054,,walk
2025-11-01T19:10:11.964838,21852,436,4.323928,13.999197,1.211466,2.175935,4.439420,0.802937,2.147994,9.559777,0.408529,-0.193033,-1.076421,0.953866,-21.180000,-8.460000,-11.460000,-135.833,-17.104,85.054,,walk
2025-11-01T19:10:12.014487,21902,437,2.954445,5.660192,-0.023942,2.175935,4.439420,0.802937,0.778510,1.220772,-0.826879,-0.193033,-1.076421,0.953866,-21.180000,-8.460000,-11.460000,-123.973,-27.563,90.242,,walk
2025-11-01T19:10:12.064778,21952,438,2.954445,5.660192,-0.023942,0.065024,-3.702714,0.372488,2.889421,9.362906,-0.396430,0.389732,0.731740,-0.264810,-21.180000,-8.460000,-11.460000,-123.973,-27.563,90.242,,walk
2025-11-01T19:10:12.113871,22001,439,2.954445,5.660192,-0.023942,0.065024,-3.702714,0.372488,2.889421,9.362906,-0.396430,0.389732,0.731740,-0.264810,-21.180000,-8.460000,-11.460000,-123.973,-27.563,90.242,,walk
2025-11-01T19:10:12.164153,22051,440,1.173159,12.330438,-1.101333,0.065024,-3.702714,0.372488,1.108135,16.033152,-1.473821,0.389732,0.731740,-0.264810,-18.719999,-10.620000,-11.639999,-140.914,-5.414,95.104,,walk
2025-11-01T19:10:12.214061,22101,441,1.173159,12.330438,-1.101333,-0.825416,2.747486,-0.515901,1.998575,9.582952,-0.585431,2.472783,1.976073,-0.006414,-18.719999,-10.620000,-11.639999,-140.914,-5.414,95.104,,walk
2025-11-01T19:10:12.265040,22152,442,1.173159,12.330438,-1.101333,-0.825416,2.747486,-0.515901,1.998575,9.582952,-0.585431,2.472783,1.976073,-0.006414,-18.719999,-10.620000,-11.639999,-140.914,-5.414,95.104,,walk
2025-11-01T19:10:12.313847,22201,443,1.173159,12.330438,-1.101333,-0.825416,2.747486,-0.515901,1.998575,9.582952,-0.585431,2.472783,1.976073,-0.006414,-18.719999,-10.620000,-11.639999,-140.914,-5.414,95.104,,walk
2025-11-01T19:10:12.365117,22252,444,4.778827,13.079823,0.119710,-0.825416,2.747486,-0.515901,5.604243,10.332337,0.635611,2.472783,1.976073,-0.006414,-17.039999,-13.440000,-19.859999,-110.656,-20.069,89.476,,walk
2025-11-01T19:10:12.414276,22301,445,4.778827,13.079823,0.119710,2.906707,3.453919,0.034774,1.872120,9.625904,0.084936,-1.954769,-1.096579,-0.407142,-17.039999,-13.440000,-19.859999,-110.656,-20.069,89.476,,walk
2025-11-01T19:10:12.463822,22351,446,4.778827,13.079823,0.119710,2.906707,3.453919,0.034774,1.872120,9.625904,0.084936,-1.954769,-1.096579,-0.407142,-17.039999,-13.440000,-19.859999,-110.656,-20.069,89.476,,walk
2025-11-01T19:10:12.514229,22401,447,4.778827,13.079823,0.119710,2.906707,3.453919,0.034774,1.872120,9.625904,0.084936,-1.954769,-1.096579,-0.407142,-17.039999,-13.440000,-19.859999,-110.656,-20.069,89.476,,walk
2025-11-01T19:10:12.564995,22452,448,1.477222,6.883629,1.879448,2.906707,3.453919,0.034774,-1.429484,3.429710,1.844674,-1.954769,-1.096579,-0.407142,-13.139999,-9.599999,-17.580000,-119.197,-11.696,74.729,,walk
2025-11-01T19:10:12.614349,22502,449,1.477222,6.883629,1.879448,-0.674085,-2.662770,1.240513,2.151308,9.546399,0.638935,0.169821,0.655382,0.391870,-13.139999,-9.599999,-17.580000,-119.197,-11.696,74.729,,walk
2025-11-01T19:10:12.664312,22552,450,1.477222,6.883629,1.879448,-0.674085,-2.662770,1.240513,2.151308,9.546399,0.638935,0.169821,0.655382,0.391870,-13.139999,-9.599999,-17.580000,-119.197,-11.696,74.729,,walk
2025-11-01T19:10:12.713728,22601,451,0.816423,13.166015,1.517924,-0.674085,-2.662770,1.240513,1.490508,15.828784,0.277411,0.169821,0.655382,0.391870,-13.139999,-9.599999,-17.580000,-125.082,-3.525,83.423,,walk
2025-11-01T19:10:12.764824,22652,452,0.816423,13.166015,1.517924,-1.243668,3.675481,0.155624,2.060090,9.490534,1.362300,0.125838,1.421407,-0.138972,-12.480000,-8.280000,-24.299999,-114.632,-3.525,83.423,,walk
2025-11-01T19:10:12.813828,22701,453,0.816423,13.166015,1.517924,-1.243668,3.675481,0.155624,2.060090,9.490534,1.362300,0.125838,1.421407,-0.138972,-12.480000,-8.280000,-24.299999,-114.632,-3.525,83.423,,walk
2025-11-01T19:10:12.863907,22751,454,0.816423,13.166015,1.517924,-1.243668,3.675481,0.155624,2.060090,9.490534,1.362300,0.125838,1.421407,-0.138972,-12.480000,-8.280000,-24.299999,-114.632,-3.525,83.423,,walk
2025-11-01T19:10:12.914288,22801,455,5.150227,9.952995,3.284845,-1.243668,3.675481,0.155624,6.393895,6.277514,3.129220,0.125838,1.421407,-0.138972,-12.480000,-8.280000,-24.299999,-91.188,-26.169,71.735,,walk
2025-11-01T19:10:12.965532,22853,456,5.150227,9.952995,3.284845,2.288752,0.703470,1.726500,2.861475,9.249525,1.558345,0.853379,-0.697684,0.878730,-11.700000,-12.480000,-24.000000,-89.776,-26.169,71.735,,walk
2025-11-01T19:10:13.013771,22901,457,5.150227,9.952995,3.284845,2.288752,0.703470,1.726500,2.861475,9.249525,1.558345,0.853379,-0.697684,0.878730,-11.700000,-12.480000,-24.000000,-89.776,-26.169,71.735,,walk
2025-11-01T19:10:13.063541,22951,458,2.293645,6.129456,0.038307,2.288752,0.703470,1.726500,0.004894,5.425985,-1.688193,0.853379,-0.697684,0.878730,-11.700000,-12.480000,-24.000000,-95.490,-20.516,89.642,,walk
2025-11-01T19:10:13.114172,23001,459,2.293645,6.129456,0.038307,-0.939329,-3.110213,-0.550476,3.232974,9.239669,0.588783,-0.264505,-0.004352,-0.126144,-11.700000,-12.480000,-24.000000,-95.490,-20.516,89.642,,walk
2025-11-01T19:10:13.164329,23052,460,2.293645,6.129456,0.038307,-0.939329,-3.110213,-0.550476,3.232974,9.239669,0.588783,-0.264505,-0.004352,-0.126144,-12.719999,-10.920000,-19.619999,-102.477,-20.516,89.642,,walk
2025-11-01T19:10:13.213774,23101,461,2.293645,6.129456,0.038307,-0.939329,-3.110213,-0.550476,3.232974,9.239669,0.588783,-0.264505,-0.004352,-0.126144,-12.719999,-10.920000,-19.619999,-102.477,-20.516,89.642,,walk
2025-11-01T19:10:13.265196,23152,462,1.532289,10.185233,0.919373,-0.939329,-3.110213,-0.550476,2.471618,13.295446,1.469849,-0.264505,-0.004352,-0.126144,-12.719999,-10.920000,-19.619999,-115.564,-8.521,84.842,,walk
2025-11-01T19:10:13.314491,23202,463,1.532289,10.185233,0.919373,-0.418992,0.662302,-0.375405,1.951281,9.522931,1.294779,0.088575,1.525254,0.390037,-12.719999,-10.920000,-19.619999,-115.564,-8.521,84.842,,walk
2025-11-01T19:10:13.363520,23251,464,1.532289,10.185233,0.919373,-0.418992,0.662302,-0.375405,1.951281,9.522931,1.294779,0.088575,1.525254,0.390037,-6.420000,-10.500000,-25.439999,-95.877,-8.521,84.842,,walk
2025-11-01T19:10:13.414191,23301,465,1.532289,10.185233,0.919373,-0.418992,0.662302,-0.375405,1.951281,9.522931,1.294779,0.088575,1.525254,0.390037,-6.420000,-10.500000,-25.439999,-95.877,-8.521,84.842,,walk
2025-11-01T19:10:13.465174,23352,466,5.729624,9.969755,2.025495,-0.418992,0.662302,-0.375405,6.148616,9.307453,2.400900,0.088575,1.525254,0.390037,-6.420000,-10.500000,-25.439999,-73.129,-29.388,78.516,,walk
2025-11-01T19:10:13.515849,23403,467,5.729624,9.969755,2.025495,2.671744,0.715360,0.941212,3.057879,9.254395,1.084282,-1.135599,-2.373288,-0.778548,-6.420000,-10.500000,-25.439999,-73.129,-29.388,78.516,,walk
2025-11-01T19:10:13.565778,23453,468,5.729624,9.969755,2.025495,2.671744,0.715360,0.941212,3.057879,9.254395,1.084282,-1.135599,-2.373288,-0.778548,-11.040000,-8.880000,-23.279999,-85.594,-29.388,78.516,,walk
2025-11-01T19:10:13.614889,23502,469,1.817199,5.758354,2.070984,2.671744,0.715360,0.941212,-0.854545,5.042994,1.129772,-1.135599,-2.373288,-0.778548,-11.040000,-8.880000,-23.279999,-100.693,-16.539,70.219,,walk
2025-11-01T19:10:13.664217,23551,470,1.817199,5.758354,2.070984,-1.132903,-3.556164,1.230292,2.950102,9.314518,0.840692,0.325591,-0.028787,-0.080940,-11.040000,-8.880000,-23.279999,-100.693,-16.539,70.219,,walk
2025-11-01T19:10:13.714801,23602,471,1.817199,5.758354,2.070984,-1.132903,-3.556164,1.230292,2.950102,9.314518,0.840692,0.325591,-0.028787,-0.080940,-11.040000,-8.880000,-23.279999,-100.693,-16.539,70.219,,walk
2025-11-01T19:10:13.765055,23652,472,1.817199,5.758354,2.070984,-1.132903,-3.556164,1.230292,2.950102,9.314518,0.840692,0.325591,-0.028787,-0.080940,-12.840000,-7.920000,-18.420000,-112.128,-16.539,70.219,,walk
2025-11-01T19:10:13.814529,23702,473,-0.648829,9.945813,0.605733,-1.132903,-3.556164,1.230292,0.484074,13.501977,-0.624559,0.325591,-0.028787,-0.080940,-12.840000,-7.920000,-18.420000,-129.438,3.726,86.515,,walk
2025-11-01T19:10:13.865487,23753,474,-0.648829,9.945813,0.605733,-2.648399,0.433559,-0.693821,1.999570,9.512254,1.299554,0.203418,1.805030,0.240986,-12.840000,-7.920000,-18.420000,-129.438,3.726,86.515,,walk
2025-11-01T19:10:13.914726,23802,475,-0.648829,9.945813,0.605733,-2.648399,0.433559,-0.693821,1.999570,9.512254,1.299554,0.203418,1.805030,0.240986,-12.840000,-7.920000,-18.420000,-129.438,3.726,86.515,,walk
2025-11-01T19:10:13.964379,23852,476,1.077391,8.492533,-0.430956,-2.648399,0.433559,-0.693821,3.725789,8.058973,0.262865,0.203418,1.805030,0.240986,-7.020000,-9.900000,-24.299999,-98.731,-7.221,92.905,,walk
2025-11-01T19:10:14.015471,23903,477,1.077391,8.492533,-0.430956,-0.505298,-1.147886,-1.283996,1.582688,9.640419,0.853040,-0.563829,-1.326876,0.515265,-7.020000,-9.900000,-24.299999,-98.731,-7.221,92.905,,walk
2025-11-01T19:10:14.063518,23951,478,1.077391,8.492533,-0.430956,-0.505298,-1.147886,-1.283996,1.582688,9.640419,0.853040,-0.563829,-1.326876,0.515265,-7.020000,-9.900000,-24.299999,-98.731,-7.221,92.905,,walk
2025-11-01T19:10:14.113431,24001,479,1.077391,8.492533,-0.430956,-0.505298,-1.147886,-1.283996,1.582688,9.640419,0.853040,-0.563829,-1.326876,0.515265,-7.020000,-9.900000,-24.299999,-98.731,-7.221,92.905,,walk
2025-11-01T19:10:14.163627,24051,480,2.528277,5.310638,0.136469,-0.505298,-1.147886,-1.283996,3.033574,6.458525,1.420466,-0.563829,-1.326876,0.515265,-5.580000,-13.380000,-20.340000,-79.720,-25.451,88.528,,walk
2025-11-01T19:10:14.213787,24101,481,2.528277,5.310638,0.136469,-0.054494,-4.132693,-0.431763,2.582771,9.443332,0.568233,0.003054,-0.191888,0.169515,-5.580000,-13.380000,-20.340000,-79.720,-25.451,88.528,,walk
2025-11-01T19:10:14.265394,24153,482,2.528277,5.310638,0.136469,-0.054494,-4.132693,-0.431763,2.582771,9.443332,0.568233,0.003054,-0.191888,0.169515,-5.580000,-13.380000,-20.340000,-79.720,-25.451,88.528,,walk
2025-11-01T19:10:14.314578,24202,483,2.528277,5.310638,0.136469,-0.054494,-4.132693,-0.431763,2.582771,9.443332,0.568233,0.003054,-0.191888,0.169515,-5.580000,-13.380000,-20.340000,-79.720,-25.451,88.528,,walk
2025-11-01T19:10:14.364679,24252,484,2.715025,9.565135,0.323217,-0.054494,-4.132693,-0.431763,2.769519,13.697828,0.754980,0.003054,-0.191888,0.169515,-7.500000,-10.920000,-19.859999,-94.939,-15.838,88.065,,walk
2025-11-01T19:10:14.413826,24301,485,2.715025,9.565135,0.323217,1.038019,-0.047382,-0.655193,1.677005,9.612517,0.978411,0.190590,1.526476,-0.203113,-7.500000,-10.920000,-19.859999,-94.939,-15.838,88.065,,walk
2025-11-01T19:10:14.464393,24352,486,2.715025,9.565135,0.323217,1.038019,-0.047382,-0.655193,1.677005,9.612517,0.978411,0.190590,1.526476,-0.203113,-7.500000,-10.920000,-19.859999,-94.939,-15.838,88.065,,walk
2025-11-01T19:10:14.513823,24401,487,2.568978,9.766248,-1.132457,1.038019,-0.047382,-0.655193,1.530959,9.813630,-0.477264,0.190590,1.526476,-0.203113,-7.500000,-10.920000,-19.859999,-95.743,-14.644,96.614,,walk
2025-11-01T19:10:14.564239,24451,488,2.568978,9.766248,-1.132457,0.714953,0.138491,-0.935151,1.854025,9.627757,-0.197307,-1.017091,-2.237065,1.188438,-7.740000,-15.719999,-15.240000,-101.177,-14.644,96.614,,walk
2025-11-01T19:10:14.613572,24501,489,2.568978,9.766248,-1.132457,0.714953,0.138491,-0.935151,1.854025,9.627757,-0.197307,-1.017091,-2.237065,1.188438,-7.740000,-15.719999,-15.240000,-101.177,-14.644,96.614,,walk
2025-11-01T19:10:14.665064,24552,490,2.568978,9.766248,-1.132457,0.714953,0.138491,-0.935151,1.854025,9.627757,-0.197307,-1.017091,-2.237065,1.188438,-7.740000,-15.719999,-15.240000,-101.177,-14.644,96.614,,walk
2025-11-01T19:10:14.714479,24602,491,1.091756,5.296273,2.647987,0.714953,0.138491,-0.935151,0.376803,5.157783,3.583138,-1.017091,-2.237065,1.188438,-7.740000,-15.719999,-15.240000,-122.431,-10.447,63.436,,walk
2025-11-01T19:10:14.764240,24651,492,1.091756,5.296273,2.647987,-1.215910,-4.216786,2.059307,2.307666,9.513060,0.588680,0.064141,-0.239536,-0.043066,-12.420000,-10.020000,-15.000000,-131.510,-10.447,63.436,,walk
2025-11-01T19:10:14.814293,24701,493,1.091756,5.296273,2.647987,-1.215910,-4.216786,2.059307,2.307666,9.513060,0.588680,0.064141,-0.239536,-0.043066,-12.420000,-10.020000,-15.000000,-131.510,-10.447,63.436,,walk
2025-11-01T19:10:14.865874,24753,494,-1.012747,9.045593,0.074220,-1.215910,-4.216786,2.059307,0.203163,13.262380,-1.985087,0.064141,-0.239536,-0.043066,-12.420000,-10.020000,-15.000000,-136.188,6.388,89.530,,walk
2025-11-01T19:10:14.913938,24801,495,-1.012747,9.045593,0.074220,-2.672900,-0.582356,-0.772387,1.660152,9.627950,0.846608,0.063530,1.594282,0.059559,-12.420000,-10.020000,-15.000000,-136.188,6.388,89.530,,walk
2025-11-01T19:10:14.965140,24852,496,-1.012747,9.045593,0.074220,-2.672900,-0.582356,-0.772387,1.660152,9.627950,0.846608,0.063530,1.594282,0.059559,-10.800000,-12.780000,-20.639999,-124.155,6.388,89.530,,walk
2025-11-01T19:10:15.014088,24901,497,-1.012747,9.045593,0.074220,-2.672900,-0.582356,-0.772387,1.660152,9.627950,0.846608,0.063530,1.594282,0.059559,-10.800000,-12.780000,-20.639999,-124.155,6.388,89.530,,walk
2025-11-01T19:10:15.064230,24951,498,2.094927,8.980949,-0.392649,-2.672900,-0.582356,-0.772387,4.767826,9.563306,0.379738,0.063530,1.594282,0.059559,-10.800000,-12.780000,-20.639999,-104.180,-13.118,92.503,,walk
2025-11-01T19:10:15.114819,25002,499,2.094927,8.980949,-0.392649,0.608138,-0.672290,-1.272676,1.486789,9.653239,0.880027,-0.783740,-1.422781,0.842078,-10.800000,-12.780000,-20.639999,-104.180,-13.118,92.503,,walk
2025-11-01T19:10:15.163997,25051,500,2.094927,8.980949,-0.392649,0.608138,-0.672290,-1.272676,1.486789,9.653239,0.880027,-0.783740,-1.422781,0.842078,-6.300000,-15.360000,-20.100000,-94.156,-13.118,92.503,,walk
2025-11-01T19:10:15.214364,25102,501,2.094927,8.980949,-0.392649,0.608138,-0.672290,-1.272676,1.486789,9.653239,0.880027,-0.783740,-1.422781,0.842078,-6.300000,-15.360000,-20.100000,-94.156,-13.118,92.503,,walk
2025-11-01T19:10:15.264119,25151,502,2.513912,5.150227,0.313640,0.608138,-0.672290,-1.272676,1.905774,5.822517,1.586317,-0.783740,-1.422781,0.842078,-6.300000,-15.360000,-20.100000,-81.014,-25.976,86.515,,walk
2025-11-01T19:10:15.313889,25201,503,2.513912,5.150227,0.313640,-0.106229,-4.284991,-0.216983,2.620141,9.435218,0.530624,0.073304,0.216781,0.142637,-6.300000,-15.360000,-20.100000,-81.014,-25.976,86.515,,walk
2025-11-01T19:10:15.364494,25252,504,2.513912,5.150227,0.313640,-0.106229,-4.284991,-0.216983,2.620141,9.435218,0.530624,0.073304,0.216781,0.142637,-12.480000,-11.340000,-15.120000,-104.075,-25.976,86.515,,walk
2025-11-01T19:10:15.415379,25303,505,3.162740,9.052776,0.526724,-0.106229,-4.284991,-0.216983,3.268969,13.337767,0.743708,0.073304,0.216781,0.142637,-12.480000,-11.340000,-15.120000,-111.032,-19.228,86.670,,walk
2025-11-01T19:10:15.464205,25351,506,3.162740,9.052776,0.526724,1.449917,-0.566890,-0.308936,1.712823,9.619666,0.835660,0.534507,1.434235,-1.146289,-12.480000,-11.340000,-15.120000,-111.032,-19.228,86.670,,walk
2025-11-01T19:10:15.514935,25402,507,3.162740,9.052776,0.526724,1.449917,-0.566890,-0.308936,1.712823,9.619666,0.835660,0.534507,1.434235,-1.146289,-12.480000,-11.340000,-15.120000,-111.032,-19.228,86.670,,walk
2025-11-01T19:10:15.564725,25452,508,3.162740,9.052776,0.526724,1.449917,-0.566890,-0.308936,1.712823,9.619666,0.835660,0.534507,1.434235,-1.146289,-10.020000,-14.700000,-18.539999,-99.563,-19.228,86.670,,walk
2025-11-01T19:10:15.614751,25502,509,4.968268,11.923424,-2.573767,1.449917,-0.566890,-0.308936,3.518351,12.490314,-2.264831,0.534507,1.434235,-1.146289,-10.020000,-14.700000,-18.539999,-95.538,-22.161,102.181,,walk
2025-11-01T19:10:15.664878,25552,510,4.968268,11.923424,-2.573767,3.224360,2.307776,-1.756207,1.743908,9.615647,-0.817560,-0.442266,-1.281061,-0.435241,-10.020000,-14.700000,-18.539999,-95.538,-22.161,102.181,,walk
2025-11-01T19:10:15.714422,25602,511,4.968268,11.923424,-2.573767,3.224360,2.307776,-1.756207,1.743908,9.615647,-0.817560,-0.442266,-1.281061,-0.435241,-10.020000,-14.700000,-18.539999,-95.538,-22.161,102.181,,walk
2025-11-01T19:10:15.765393,25653,512,1.374272,4.973056,4.680665,3.224360,2.307776,-1.756207,-1.850088,2.665280,6.436871,-0.442266,-1.281061,-0.435241,-11.460000,-13.080000,-11.400000,-174.787,-11.378,46.735,,walk
2025-11-01T19:10:15.815544,25703,513,1.374272,4.973056,4.680665,-0.291054,-4.651486,3.806127,1.665326,9.624542,0.874537,-0.015882,-0.998841,-0.057116,-11.460000,-13.080000,-11.400000,-174.787,-11.378,46.735,,walk
2025-11-01T19:10:15.863797,25751,514,1.374272,4.973056,4.680665,-0.291054,-4.651486,3.806127,1.665326,9.624542,0.874537,-0.015882,-0.998841,-0.057116,-11.460000,-13.080000,-11.400000,-174.787,-11.378,46.735,,walk
2025-11-01T19:10:15.914395,25802,515,1.374272,4.973056,4.680665,-0.291054,-4.651486,3.806127,1.665326,9.624542,0.874537,-0.015882,-0.998841,-0.057116,-11.460000,-13.080000,-11.400000,-174.787,-11.378,46.735,,walk
2025-11-01T19:10:15.964169,25851,516,-0.227449,9.596260,0.454898,-0.291054,-4.651486,3.806127,0.063605,14.247746,-3.351229,-0.015882,-0.998841,-0.057116,-11.160000,-11.460000,-10.559999,-139.511,1.356,87.286,,walk
2025-11-01T19:10:16.013892,25901,517,-0.227449,9.596260,0.454898,-1.891536,0.011354,-0.782317,1.664086,9.584906,1.237215,-0.141110,2.075644,0.182343,-11.160000,-11.460000,-10.559999,-139.511,1.356,87.286,,walk
2025-11-01T19:10:16.065556,25953,518,-0.227449,9.596260,0.454898,-1.891536,0.011354,-0.782317,1.664086,9.584906,1.237215,-0.141110,2.075644,0.182343,-11.160000,-11.460000,-10.559999,-139.511,1.356,87.286,,walk
2025-11-01T19:10:16.113954,26001,519,-0.227449,9.596260,0.454898,-1.891536,0.011354,-0.782317,1.664086,9.584906,1.237215,-0.141110,2.075644,0.182343,-11.160000,-11.460000,-10.559999,-139.511,1.356,87.286,,walk
2025-11-01T19:10:16.164271,26051,520,2.995146,15.110406,-0.684742,-1.891536,0.011354,-0.782317,4.886682,15.099051,0.097575,-0.141110,2.075644,0.182343,-10.080000,-13.740000,-18.299999,-107.160,-11.200,92.595,,walk
2025-11-01T19:10:16.214468,26102,521,2.995146,15.110406,-0.684742,1.602731,5.411319,-1.083575,1.392416,9.699087,0.398834,0.585209,-0.417908,0.008858,-10.080000,-13.740000,-18.299999,-107.160,-11.200,92.595,,walk
2025-11-01T19:10:16.264205,26151,522,2.995146,15.110406,-0.684742,1.602731,5.411319,-1.083575,1.392416,9.699087,0.398834,0.585209,-0.417908,0.008858,-10.080000,-13.740000,-18.299999,-107.160,-11.200,92.595,,walk
2025-11-01T19:10:16.313749,26201,523,3.442862,5.542876,3.617639,1.602731,5.411319,-1.083575,1.840132,0.131557,4.701214,0.585209,-0.417908,0.008858,-10.080000,-13.740000,-18.299999,-92.856,-27.481,56.869,,walk
2025-11-01T19:10:16.364611,26252,524,3.442862,5.542876,3.617639,1.428098,-4.021078,2.816772,2.014764,9.563954,0.800866,0.079412,-0.618272,0.384540,-10.080000,-13.080000,-13.440000,-112.153,-27.481,56.869,,walk
2025-11-01T19:10:16.413719,26301,525,3.442862,5.542876,3.617639,1.428098,-4.021078,2.816772,2.014764,9.563954,0.800866,0.079412,-0.618272,0.384540,-10.080000,-13.080000,-13.440000,-112.153,-27.481,56.869,,walk
2025-11-01T19:10:16.463741,26351,526,3.442862,5.542876,3.617639,1.428098,-4.021078,2.816772,2.014764,9.563954,0.800866,0.079412,-0.618272,0.384540,-10.080000,-13.080000,-13.440000,-112.153,-27.481,56.869,,walk
2025-11-01T19:10:16.515398,26403,527,2.801216,9.483732,0.984017,1.428098,-4.021078,2.816772,1.373117,13.504810,-1.832756,0.079412,-0.618272,0.384540,-10.080000,-13.080000,-13.440000,-112.358,-16.372,84.076,,walk
2025-11-01T19:10:16.564399,26452,528,2.801216,9.483732,0.984017,0.863489,-0.093219,0.148797,1.937726,9.576951,0.835220,0.064752,1.256473,-0.635605,-12.719999,-11.280000,-14.040000,-117.560,-16.372,84.076,,walk
2025-11-01T19:10:16.614481,26502,529,2.801216,9.483732,0.984017,0.863489,-0.093219,0.148797,1.937726,9.576951,0.835220,0.064752,1.256473,-0.635605,-12.719999,-11.280000,-14.040000,-117.560,-16.372,84.076,,walk
2025-11-01T19:10:16.665159,26552,530,4.254497,12.577041,-5.597943,0.863489,-0.093219,0.148797,3.391007,12.670259,-5.746740,0.064752,1.256473,-0.635605,-12.719999,-11.280000,-14.040000,-111.553,-17.174,113.993,,walk
2025-11-01T19:10:16.713645,26601,531,4.254497,12.577041,-5.597943,2.383356,2.967654,-5.024694,1.871141,9.609386,-0.573249,-0.200364,-0.413021,0.400422,-12.719999,-11.280000,-14.040000,-111.553,-17.174,113.993,,walk
2025-11-01T19:10:16.765503,26653,532,4.254497,12.577041,-5.597943,2.383356,2.967654,-5.024694,1.871141,9.609386,-0.573249,-0.200364,-0.413021,0.400422,-15.719999,-16.440001,-15.299999,-113.389,-17.174,113.993,,walk
2025-11-01T19:10:16.813695,26701,533,4.254497,12.577041,-5.597943,2.383356,2.967654,-5.024694,1.871141,9.609386,-0.573249,-0.200364,-0.413021,0.400422,-15.719999,-16.440001,-15.299999,-113.389,-17.174,113.993,,walk
2025-11-01T19:10:16.864792,26752,534,-0.265756,6.792649,5.025729,2.383356,2.967654,-5.024694,-2.649112,3.824995,10.050423,-0.200364,-0.413021,0.400422,-15.719999,-16.440001,-15.299999,-172.548,1.801,53.503,,walk
2025-11-01T19:10:16.914091,26801,535,-0.265756,6.792649,5.025729,-1.785108,-2.879809,4.473271,1.519352,9.672459,0.552458,0.023213,-1.205313,0.057727,-15.719999,-16.440001,-15.299999,-172.548,1.801,53.503,,walk
2025-11-01T19:10:16.964509,26852,536,-0.265756,6.792649,5.025729,-1.785108,-2.879809,4.473271,1.519352,9.672459,0.552458,0.023213,-1.205313,0.057727,-13.320000,-13.080000,-12.300000,-172.652,1.801,53.503,,walk
2025-11-01T19:10:17.014680,26902,537,-0.265756,6.792649,5.025729,-1.785108,-2.879809,4.473271,1.519352,9.672459,0.552458,0.023213,-1.205313,0.057727,-13.320000,-13.080000,-12.300000,-172.652,1.801,53.503,,walk
2025-11-01T19:10:17.064301,26952,538,0.433351,9.411906,0.553061,-1.785108,-2.879809,4.473271,2.218459,12.291716,-3.920210,0.023213,-1.205313,0.057727,-13.320000,-13.080000,-12.300000,-136.457,-2.632,86.637,,walk
2025-11-01T19:10:17.114245,27001,539,0.433351,9.411906,0.553061,-1.298543,-0.217338,-0.116531,1.731893,9.629244,0.669592,0.014050,1.635210,0.151189,-13.320000,-13.080000,-12.300000,-136.457,-2.632,86.637,,walk
2025-11-01T19:10:17.164499,27052,540,0.433351,9.411906,0.553061,-1.298543,-0.217338,-0.116531,1.731893,9.629244,0.669592,0.014050,1.635210,0.151189,-14.700000,-12.179999,-17.520000,-128.530,-2.632,86.637,,walk
2025-11-01T19:10:17.213774,27101,541,3.148375,14.293683,-1.683124,-1.298543,-0.217338,-0.116531,4.446918,14.511021,-1.566593,0.014050,1.635210,0.151189,-14.700000,-12.179999,-17.520000,-116.235,-12.339,96.716,,walk
2025-11-01T19:10:17.264304,27152,542,3.148375,14.293683,-1.683124,1.603931,4.612753,-1.429105,1.544444,9.680930,-0.254019,0.497244,-0.645150,-0.353386,-14.700000,-12.179999,-17.520000,-116.235,-12.339,96.716,,walk
2025-11-01T19:10:17.313955,27201,543,3.148375,14.293683,-1.683124,1.603931,4.612753,-1.429105,1.544444,9.680930,-0.254019,0.497244,-0.645150,-0.353386,-14.700000,-12.179999,-17.520000,-116.235,-12.339,96.716,,walk
2025-11-01T19:10:17.363753,27251,544,3.148375,14.293683,-1.683124,1.603931,4.612753,-1.429105,1.544444,9.680930,-0.254019,0.497244,-0.645150,-0.353386,-12.000000,-17.879999,-15.299999,-113.456,-12.339,96.716,,walk
2025-11-01T19:10:17.414499,27302,545,3.842694,7.271490,2.049437,1.603931,4.612753,-1.429105,2.238762,2.658737,3.478542,0.497244,-0.645150,-0.353386,-12.000000,-17.879999,-15.299999,-105.548,-26.960,74.260,,walk
2025-11-01T19:10:17.464406,27352,546,3.842694,7.271490,2.049437,1.897535,-2.331378,1.635691,1.945158,9.602867,0.413746,0.198531,0.275424,0.277638,-12.000000,-17.879999,-15.299999,-105.548,-26.960,74.260,,walk
2025-11-01T19:10:17.514285,27401,547,3.842694,7.271490,2.049437,1.897535,-2.331378,1.635691,1.945158,9.602867,0.413746,0.198531,0.275424,0.277638,-12.000000,-17.879999,-15.299999,-105.548,-26.960,74.260,,walk
2025-11-01T19:10:17.563541,27451,548,2.319981,8.351274,0.624887,1.897535,-2.331378,1.635691,0.422446,10.682652,-1.010804,0.198531,0.275424,0.277638,-12.719999,-12.660000,-15.960000,-114.219,-15.484,85.721,,walk
2025-11-01T19:10:17.614066,27501,549,2.319981,8.351274,0.624887,0.419744,-1.259870,0.194866,1.900237,9.611144,0.430021,-0.188147,0.585133,-0.429133,-12.719999,-12.660000,-15.960000,-114.219,-15.484,85.721,,walk
2025-11-01T19:10:17.663638,27551,550,2.319981,8.351274,0.624887,0.419744,-1.259870,0.194866,1.900237,9.611144,0.430021,-0.188147,0.585133,-0.429133,-12.719999,-12.660000,-15.960000,-114.219,-15.484,85.721,,walk
2025-11-01T19:10:17.714052,27601,551,2.319981,8.351274,0.624887,0.419744,-1.259870,0.194866,1.900237,9.611144,0.430021,-0.188147,0.585133,-0.429133,-12.719999,-12.660000,-15.960000,-114.219,-15.484,85.721,,walk
2025-11-01T19:10:17.764089,27651,552,3.998317,10.905888,-0.572214,0.419744,-1.259870,0.194866,3.578573,12.165757,-0.767080,-0.188147,0.585133,-0.429133,-10.139999,-14.880000,-19.139999,-97.545,-20.109,93.003,,walk
2025-11-01T19:10:17.814453,27702,553,3.998317,10.905888,-0.572214,2.091769,1.355829,0.581580,1.906548,9.550058,-1.153794,-0.313985,-2.229124,0.167683,-10.139999,-14.880000,-19.139999,-97.545,-20.109,93.003,,walk
2025-11-01T19:10:17.865112,27752,554,3.998317,10.905888,-0.572214,2.091769,1.355829,0.581580,1.906548,9.550058,-1.153794,-0.313985,-2.229124,0.167683,-10.139999,-14.880000,-19.139999,-97.545,-20.109,93.003,,walk
2025-11-01T19:10:17.913777,27801,555,3.998317,10.905888,-0.572214,2.091769,1.355829,0.581580,1.906548,9.550058,-1.153794,-0.313985,-2.229124,0.167683,-10.139999,-14.880000,-19.139999,-97.545,-20.109,93.003,,walk
2025-11-01T19:10:17.964579,27852,556,3.718195,9.715970,1.086968,2.091769,1.355829,0.581580,1.626426,8.360141,0.505388,-0.313985,-2.229124,0.167683,-13.320000,-14.639999,-13.380000,-116.389,-20.823,83.617,,walk
2025-11-01T19:10:18.014485,27902,557,3.718195,9.715970,1.086968,2.056149,0.052666,0.918727,1.662047,9.663304,0.168241,-0.735482,-0.076435,-0.289245,-13.320000,-14.639999,-13.380000,-116.389,-20.823,83.617,,walk
2025-11-01T19:10:18.064350,27952,558,3.718195,9.715970,1.086968,2.056149,0.052666,0.918727,1.662047,9.663304,0.168241,-0.735482,-0.076435,-0.289245,-13.320000,-14.639999,-13.380000,-116.389,-20.823,83.617,,walk
2025-11-01T19:10:18.114121,28001,559,1.072602,8.365640,1.158794,2.056149,0.052666,0.918727,-0.983546,8.312974,0.240067,-0.735482,-0.076435,-0.289245,-13.320000,-14.639999,-13.380000,-132.004,-7.238,82.114,,walk
2025-11-01T19:10:18.164272,28051,560,1.072602,8.365640,1.158794,-0.777322,-1.261838,0.914737,1.849924,9.627478,0.244057,0.117897,1.502652,0.196393,-10.500000,-12.120000,-15.900000,-118.850,-7.238,82.114,,walk
2025-11-01T19:10:18.214277,28101,561,1.072602,8.365640,1.158794,-0.777322,-1.261838,0.914737,1.849924,9.627478,0.244057,0.117897,1.502652,0.196393,-10.500000,-12.120000,-15.900000,-118.850,-7.238,82.114,,walk
2025-11-01T19:10:18.263804,28151,562,1.072602,8.365640,1.158794,-0.777322,-1.261838,0.914737,1.849924,9.627478,0.244057,0.117897,1.502652,0.196393,-10.500000,-12.120000,-15.900000,-118.850,-7.238,82.114,,walk
2025-11-01T19:10:18.313768,28201,563,2.197877,11.940183,0.342371,-0.777322,-1.261838,0.914737,2.975199,13.202021,-0.572366,0.117897,1.502652,0.196393,-10.500000,-12.120000,-15.900000,-113.438,-10.426,88.358,,walk
2025-11-01T19:10:18.364084,28251,564,2.197877,11.940183,0.342371,0.473218,2.298241,-0.135625,1.724659,9.641942,0.477996,0.777021,-0.484493,-0.049175,-9.660000,-12.120000,-21.480000,-103.999,-10.426,88.358,,walk
2025-11-01T19:10:18.414193,28301,565,2.197877,11.940183,0.342371,0.473218,2.298241,-0.135625,1.724659,9.641942,0.477996,0.777021,-0.484493,-0.049175,-9.660000,-12.120000,-21.480000,-103.999,-10.426,88.358,,walk
2025-11-01T19:10:18.463569,28351,566,3.220201,10.120590,-0.246603,0.473218,2.298241,-0.135625,2.746983,7.822350,-0.110978,0.777021,-0.484493,-0.049175,-9.660000,-12.120000,-21.480000,-96.490,-17.645,91.396,,walk
2025-11-01T19:10:18.513661,28401,567,3.220201,10.120590,-0.246603,1.084658,0.574820,-0.945176,2.135543,9.545771,0.698573,-0.672563,-0.914542,1.044885,-9.660000,-12.120000,-21.480000,-96.490,-17.645,91.396,,walk
2025-11-01T19:10:18.565003,28452,568,3.220201,10.120590,-0.246603,1.084658,0.574820,-0.945176,2.135543,9.545771,0.698573,-0.672563,-0.914542,1.044885,-12.360000,-11.880000,-15.900000,-109.939,-17.645,91.396,,walk
