timestamp_iso,session_ms,sample_idx,acc_x,acc_y,acc_z,useracc_x,useracc_y,useracc_z,gravity_x,gravity_y,gravity_z,gyro_x,gyro_y,gyro_z,mag_x,mag_y,mag_z,yaw_deg,pitch_deg,roll_deg,pressure_hpa,label
2025-10-27T18:55:28.384226,51,0,0.881066,2.834735,7.700052,6.806446,9.779505,11.281933,-5.925379,-6.944770,-3.581881,-0.112857,0.336969,-0.465098,30.179998,-10.920000,-32.520000,0.325,-6.129,20.211,,walk
2025-10-27T18:55:28.435880,102,1,-0.478840,4.091691,9.962572,6.806446,9.779505,11.281933,-7.285286,-5.687814,-1.319361,-0.112857,0.336969,-0.465098,30.179998,-10.920000,-32.520000,-5.473,2.546,22.328,,walk
2025-10-27T18:55:28.487113,154,2,-0.478840,4.091691,9.962572,6.806446,9.779505,11.281933,-7.285286,-5.687814,-1.319361,-0.112857,0.336969,-0.465098,30.179998,-10.920000,-32.520000,-5.473,2.546,22.328,,walk
2025-10-27T18:55:28.537850,204,3,-0.478840,4.091691,9.962572,4.987525,11.239426,13.861120,-5.466365,-7.147735,-3.898548,-0.299782,0.362014,0.401109,32.880001,-10.260000,-28.320000,-3.284,2.546,22.328,,walk
2025-10-27T18:55:28.586016,253,4,-1.927332,3.150769,11.197981,4.987525,11.239426,13.861120,-6.914857,-8.088656,-2.663139,-0.299782,0.362014,0.401109,32.880001,-10.260000,-28.320000,1.758,9.407,15.715,,walk
2025-10-27T18:55:28.634080,301,5,-1.927332,3.150769,11.197981,4.987525,11.239426,13.861120,-6.914857,-8.088656,-2.663139,-0.299782,0.362014,0.401109,32.880001,-10.260000,-28.320000,1.758,9.407,15.715,,walk
2025-10-27T18:55:28.683978,351,6,-1.927332,3.150769,11.197981,4.987525,11.239426,13.861120,-6.914857,-8.088656,-2.663139,-0.299782,0.362014,0.401109,32.880001,-10.260000,-28.320000,1.758,9.407,15.715,,walk
2025-10-27T18:55:28.734981,402,7,-1.927332,3.150769,11.197981,4.119060,9.758966,15.190858,-6.046392,-6.608197,-3.992877,-0.479987,-0.123013,0.329638,32.520000,-11.520000,-28.019999,4.496,9.407,15.715,,walk
2025-10-27T18:55:28.784787,451,8,-0.976834,2.358289,7.120655,4.119060,9.758966,15.190858,-5.095894,-7.400678,-8.070203,-0.479987,-0.123013,0.329638,32.520000,-11.520000,-28.019999,1.760,7.420,18.324,,walk
2025-10-27T18:55:28.834767,501,9,-0.976834,2.358289,7.120655,4.119060,9.758966,15.190858,-5.095894,-7.400678,-8.070203,-0.479987,-0.123013,0.329638,32.520000,-11.520000,-28.019999,1.760,7.420,18.324,,walk
2025-10-27T18:55:28.885026,552,10,-0.976834,2.358289,7.120655,4.119060,9.758966,15.190858,-5.095894,-7.400678,-8.070203,-0.479987,-0.123013,0.329638,32.520000,-11.520000,-28.019999,1.760,7.420,18.324,,walk
2025-10-27T18:55:28.935274,602,11,0.067038,4.127604,9.287408,5.654379,8.345011,11.164946,-5.587342,-4.217407,-1.877538,0.215177,-0.477315,0.537943,30.059999,-14.520000,-29.639999,2.483,-0.378,23.962,,walk
2025-10-27T18:55:28.983973,651,12,0.067038,4.127604,9.287408,5.654379,8.345011,11.164946,-5.587342,-4.217407,-1.877538,0.215177,-0.477315,0.537943,30.059999,-14.520000,-29.639999,2.483,-0.378,23.962,,walk
2025-10-27T18:55:29.035112,702,13,0.067038,4.127604,9.287408,5.654379,8.345011,11.164946,-5.587342,-4.217407,-1.877538,0.215177,-0.477315,0.537943,30.059999,-14.520000,-29.639999,2.483,-0.378,23.962,,walk
2025-10-27T18:55:29.083971,751,14,0.067038,4.127604,9.287408,6.908628,9.817177,13.409498,-6.841590,-5.689573,-4.122090,0.345902,0.192193,0.294819,30.059999,-14.520000,-29.639999,2.483,-0.378,23.962,,walk
2025-10-27T18:55:29.133831,800,15,0.201113,3.129222,11.171644,6.908628,9.817177,13.409498,-6.707515,-6.687955,-2.237854,0.345902,0.192193,0.294819,30.240000,-15.839999,-28.619999,14.024,-0.993,15.648,,walk
2025-10-27T18:55:29.183667,850,16,0.201113,3.129222,11.171644,6.908628,9.817177,13.409498,-6.707515,-6.687955,-2.237854,0.345902,0.192193,0.294819,30.240000,-15.839999,-28.619999,14.024,-0.993,15.648,,walk
2025-10-27T18:55:29.234586,901,17,0.201113,3.129222,11.171644,6.908628,9.817177,13.409498,-6.707515,-6.687955,-2.237854,0.345902,0.192193,0.294819,30.240000,-15.839999,-28.619999,14.024,-0.993,15.648,,walk
2025-10-27T18:55:29.283847,950,18,0.201113,3.129222,11.171644,7.359107,8.603567,15.040076,-7.157994,-5.474345,-3.868432,-0.636980,0.473191,-0.245186,30.240000,-15.839999,-28.619999,14.024,-0.993,15.648,,walk
2025-10-27T18:55:29.334637,1001,19,-0.189142,2.305616,8.241141,7.359107,8.603567,15.040076,-7.548248,-6.297951,-6.798935,-0.636980,0.473191,-0.245186,29.699999,-14.759999,-29.820000,11.686,1.266,15.630,,walk
2025-10-27T18:55:29.383638,1050,20,-0.189142,2.305616,8.241141,7.359107,8.603567,15.040076,-7.548248,-6.297951,-6.798935,-0.636980,0.473191,-0.245186,29.699999,-14.759999,-29.820000,11.686,1.266,15.630,,walk
2025-10-27T18:55:29.434524,1101,21,-0.189142,2.305616,8.241141,6.380929,8.105618,12.641628,-6.570071,-5.800001,-4.400487,0.169973,0.695546,-0.454713,29.699999,-14.759999,-29.820000,11.686,1.266,15.630,,walk
2025-10-27T18:55:29.485028,1152,22,-1.211466,4.560954,9.359234,6.380929,8.105618,12.641628,-7.592395,-3.544663,-3.282394,0.169973,0.695546,-0.454713,29.699999,-14.759999,-29.820000,-2.662,6.637,25.981,,walk
2025-10-27T18:55:29.534417,1201,23,-1.211466,4.560954,9.359234,6.380929,8.105618,12.641628,-7.592395,-3.544663,-3.282394,0.169973,0.695546,-0.454713,32.639999,-15.900000,-27.180000,1.591,6.637,25.981,,walk
2025-10-27T18:55:29.584639,1251,24,-1.211466,4.560954,9.359234,6.380929,8.105618,12.641628,-7.592395,-3.544663,-3.282394,0.169973,0.695546,-0.454713,32.639999,-15.900000,-27.180000,1.591,6.637,25.981,,walk
2025-10-27T18:55:29.633912,1301,25,-1.211466,4.560954,9.359234,5.428322,10.405573,13.592905,-6.639788,-5.844619,-4.233671,-0.543517,0.223348,0.266108,32.639999,-15.900000,-27.180000,1.591,6.637,25.981,,walk
2025-10-27T18:55:29.684814,1351,26,-2.126051,4.199430,11.645697,5.428322,10.405573,13.592905,-7.554373,-6.206143,-1.947208,-0.543517,0.223348,0.266108,32.639999,-15.900000,-27.180000,8.248,9.745,19.829,,walk
2025-10-27T18:55:29.734667,1401,27,-2.126051,4.199430,11.645697,5.428322,10.405573,13.592905,-7.554373,-6.206143,-1.947208,-0.543517,0.223348,0.266108,30.719999,-18.059999,-26.459999,13.889,9.745,19.829,,walk
2025-10-27T18:55:29.784973,1452,28,-2.126051,4.199430,11.645697,5.428322,10.405573,13.592905,-7.554373,-6.206143,-1.947208,-0.543517,0.223348,0.266108,30.719999,-18.059999,-26.459999,13.889,9.745,19.829,,walk
2025-10-27T18:55:29.833912,1501,29,0.074220,1.549049,6.373664,5.359391,8.617248,16.186712,-5.285171,-7.068199,-9.813048,-0.592997,0.633238,-0.072311,30.719999,-18.059999,-26.459999,20.152,-0.648,13.660,,walk
2025-10-27T18:55:29.883816,1550,30,0.074220,1.549049,6.373664,5.359391,8.617248,16.186712,-5.285171,-7.068199,-9.813048,-0.592997,0.633238,-0.072311,30.719999,-18.059999,-26.459999,20.152,-0.648,13.660,,walk
2025-10-27T18:55:29.934618,1601,31,0.074220,1.549049,6.373664,5.359391,8.617248,16.186712,-5.285171,-7.068199,-9.813048,-0.592997,0.633238,-0.072311,28.920000,-18.600000,-27.959999,21.555,-0.648,13.660,,walk
2025-10-27T18:55:29.983899,1651,32,0.074220,1.549049,6.373664,7.534896,4.701268,11.902847,-7.460676,-3.152220,-5.529183,-1.641853,0.735253,0.033979,28.920000,-18.600000,-27.959999,21.555,-0.648,13.660,,walk
2025-10-27T18:55:30.034894,1701,33,-1.630451,-2.240973,8.245930,7.534896,4.701268,11.902847,-9.165348,-6.942241,-3.656918,-1.641853,0.735253,0.033979,28.920000,-18.600000,-27.959999,48.917,10.803,-15.204,,walk
2025-10-27T18:55:30.085076,1752,34,-1.630451,-2.240973,8.245930,7.534896,4.701268,11.902847,-9.165348,-6.942241,-3.656918,-1.641853,0.735253,0.033979,28.920000,-18.600000,-27.959999,48.917,10.803,-15.204,,walk
2025-10-27T18:55:30.134708,1801,35,-1.630451,-2.240973,8.245930,7.534896,4.701268,11.902847,-9.165348,-6.942241,-3.656918,-1.641853,0.735253,0.033979,37.439999,-5.220000,-24.900000,22.487,10.803,-15.204,,walk
2025-10-27T18:55:30.184590,1851,36,-1.630451,-2.240973,8.245930,3.196880,-0.840228,16.666405,-4.827332,-1.400745,-8.420475,-2.227062,1.048627,-2.634891,37.439999,-5.220000,-24.900000,22.487,10.803,-15.204,,walk
2025-10-27T18:55:30.235360,1902,37,-6.263531,-3.169923,13.058275,3.196880,-0.840228,16.666405,-9.460411,-2.329695,-3.608130,-2.227062,1.048627,-2.634891,37.439999,-5.220000,-24.900000,31.106,24.991,-13.645,,walk
2025-10-27T18:55:30.285209,1952,38,-6.263531,-3.169923,13.058275,3.196880,-0.840228,16.666405,-9.460411,-2.329695,-3.608130,-2.227062,1.048627,-2.634891,37.439999,-5.220000,-24.900000,31.106,24.991,-13.645,,walk
2025-10-27T18:55:30.335344,2002,39,-6.263531,-3.169923,13.058275,-5.881238,-2.419377,22.828640,-0.382293,-0.750546,-9.770365,-0.135459,2.855566,-0.837114,43.079998,19.619999,-8.160000,-20.101,24.991,-13.645,,walk
2025-10-27T18:55:30.383750,2050,40,-7.221211,-2.686294,5.641038,-5.881238,-2.419377,22.828640,-1.339974,-0.266917,-17.187602,-0.135459,2.855566,-0.837114,43.079998,19.619999,-8.160000,-3.669,49.133,-25.464,,walk
2025-10-27T18:55:30.434624,2101,41,-7.221211,-2.686294,5.641038,-5.881238,-2.419377,22.828640,-1.339974,-0.266917,-17.187602,-0.135459,2.855566,-0.837114,43.079998,19.619999,-8.160000,-3.669,49.133,-25.464,,walk
2025-10-27T18:55:30.485060,2152,42,-7.221211,-2.686294,5.641038,-5.881238,-2.419377,22.828640,-1.339974,-0.266917,-17.187602,-0.135459,2.855566,-0.837114,43.079998,19.619999,-8.160000,-3.669,49.133,-25.464,,walk
2025-10-27T18:55:30.535145,2202,43,-7.221211,-2.686294,5.641038,-8.765566,-2.060307,15.305048,1.544354,-0.625987,-9.664010,-0.611934,-0.444328,0.060247,42.660000,21.240000,4.680000,-11.891,49.133,-25.464,,walk
2025-10-27T18:55:30.585049,2252,44,-8.844481,-6.335357,6.548441,-8.765566,-2.060307,15.305048,-0.078915,-4.275050,-8.756607,-0.611934,-0.444328,0.060247,42.660000,21.240000,4.680000,5.162,44.148,-44.052,,walk
2025-10-27T18:55:30.635089,2302,45,-8.844481,-6.335357,6.548441,-8.765566,-2.060307,15.305048,-0.078915,-4.275050,-8.756607,-0.611934,-0.444328,0.060247,42.660000,21.240000,4.680000,5.162,44.148,-44.052,,walk
2025-10-27T18:55:30.685262,2352,46,-8.844481,-6.335357,6.548441,-8.765566,-2.060307,15.305048,-0.078915,-4.275050,-8.756607,-0.611934,-0.444328,0.060247,42.660000,21.240000,4.680000,5.162,44.148,-44.052,,walk
2025-10-27T18:55:30.734818,2401,47,-7.623437,-8.557177,3.869030,-10.230273,-6.477042,16.255627,2.606836,-2.080134,-12.386597,-1.286940,-1.824273,1.189736,45.119999,14.040000,4.800000,23.733,39.068,-65.670,,walk
2025-10-27T18:55:30.783809,2450,48,-7.623437,-8.557177,3.869030,-10.230273,-6.477042,16.255627,2.606836,-2.080134,-12.386597,-1.286940,-1.824273,1.189736,45.119999,14.040000,4.800000,23.733,39.068,-65.670,,walk
2025-10-27T18:55:30.834217,2501,49,-7.623437,-8.557177,3.869030,-10.230273,-6.477042,16.255627,2.606836,-2.080134,-12.386597,-1.286940,-1.824273,1.189736,45.119999,14.040000,4.800000,23.733,39.068,-65.670,,walk
2025-10-27T18:55:30.883780,2550,50,-7.623437,-8.557177,3.869030,-6.973825,-10.850921,13.381457,-0.649613,2.293744,-9.512427,-1.179428,0.016264,0.884915,45.119999,14.040000,4.800000,23.733,39.068,-65.670,,walk
2025-10-27T18:55:30.933817,2600,51,-5.657798,-3.500323,3.402161,-6.973825,-10.850921,13.381457,1.316027,7.350598,-9.979297,-1.179428,0.016264,0.884915,44.700001,7.740000,-3.300000,37.409,49.214,-45.815,,walk
2025-10-27T18:55:30.983617,2650,52,-5.657798,-3.500323,3.402161,-6.973825,-10.850921,13.381457,1.316027,7.350598,-9.979297,-1.179428,0.016264,0.884915,44.700001,7.740000,-3.300000,37.409,49.214,-45.815,,walk
2025-10-27T18:55:31.033779,2700,53,-5.657798,-3.500323,3.402161,-6.973825,-10.850921,13.381457,1.316027,7.350598,-9.979297,-1.179428,0.016264,0.884915,44.700001,7.740000,-3.300000,37.409,49.214,-45.815,,walk
2025-10-27T18:55:31.084903,2752,54,-5.657798,-3.500323,3.402161,-5.567234,-7.799830,12.215553,-0.090564,4.299507,-8.813393,-0.707840,0.296041,-0.462654,44.700001,7.740000,-3.300000,37.409,49.214,-45.815,,walk
2025-10-27T18:55:31.134483,2801,55,-7.367258,-5.250783,4.845864,-5.567234,-7.799830,12.215553,-1.800025,2.549047,-7.369689,-0.707840,0.296041,-0.462654,46.200001,5.580000,-0.240000,32.917,45.877,-47.297,,walk
2025-10-27T18:55:31.184729,2851,56,-7.367258,-5.250783,4.845864,-5.567234,-7.799830,12.215553,-1.800025,2.549047,-7.369689,-0.707840,0.296041,-0.462654,46.200001,5.580000,-0.240000,32.917,45.877,-47.297,,walk
2025-10-27T18:55:31.233829,2900,57,-7.367258,-5.250783,4.845864,-8.610242,-10.155835,13.246181,1.242984,4.905052,-8.400317,0.111330,-0.025885,-0.102854,46.200001,5.580000,-0.240000,32.917,45.877,-47.297,,walk
2025-10-27T18:55:31.283958,2951,58,-9.411906,-7.656956,-0.064643,-8.610242,-10.155835,13.246181,-0.801664,2.498879,-13.310825,0.111330,-0.025885,-0.102854,46.200001,5.580000,-0.240000,51.203,50.869,-90.484,,walk
2025-10-27T18:55:31.335755,3002,59,-9.411906,-7.656956,-0.064643,-8.610242,-10.155835,13.246181,-0.801664,2.498879,-13.310825,0.111330,-0.025885,-0.102854,45.419998,6.600000,3.720000,46.235,50.869,-90.484,,walk
2025-10-27T18:55:31.383782,3050,60,-9.411906,-7.656956,-0.064643,-8.610242,-10.155835,13.246181,-0.801664,2.498879,-13.310825,0.111330,-0.025885,-0.102854,45.419998,6.600000,3.720000,46.235,50.869,-90.484,,walk
2025-10-27T18:55:31.434795,3101,61,-9.411906,-7.656956,-0.064643,-10.927108,-12.770314,8.165032,1.515202,5.113358,-8.229676,-0.165392,0.978988,-0.177380,45.419998,6.600000,3.720000,46.235,50.869,-90.484,,walk
2025-10-27T18:55:31.485253,3152,62,-3.165135,-4.256891,-0.244209,-10.927108,-12.770314,8.165032,7.761973,8.513423,-8.409241,-0.165392,0.978988,-0.177380,45.419998,6.600000,3.720000,32.265,36.587,-93.283,,walk
2025-10-27T18:55:31.535433,3202,63,-3.165135,-4.256891,-0.244209,-10.927108,-12.770314,8.165032,7.761973,8.513423,-8.409241,-0.165392,0.978988,-0.177380,43.680000,9.360000,12.960000,20.662,36.587,-93.283,,walk
2025-10-27T18:55:31.584723,3251,64,-3.165135,-4.256891,-0.244209,-10.927108,-12.770314,8.165032,7.761973,8.513423,-8.409241,-0.165392,0.978988,-0.177380,43.680000,9.360000,12.960000,20.662,36.587,-93.283,,walk
2025-10-27T18:55:31.634485,3301,65,-9.735124,-9.687240,2.885013,-4.715040,-9.905247,7.621129,-5.020084,0.218007,-4.736116,-0.093310,0.516563,-2.357558,43.680000,9.360000,12.960000,23.302,43.924,-73.416,,walk
2025-10-27T18:55:31.684708,3351,66,-9.735124,-9.687240,2.885013,-4.715040,-9.905247,7.621129,-5.020084,0.218007,-4.736116,-0.093310,0.516563,-2.357558,43.680000,9.360000,12.960000,23.302,43.924,-73.416,,walk
2025-10-27T18:55:31.734383,3401,67,-9.735124,-9.687240,2.885013,-4.715040,-9.905247,7.621129,-5.020084,0.218007,-4.736116,-0.093310,0.516563,-2.357558,39.779999,21.059999,14.639999,14.907,43.924,-73.416,,walk
2025-10-27T18:55:31.784406,3451,68,-9.735124,-9.687240,2.885013,-11.257991,-14.174055,11.471018,1.522867,4.486815,-8.586005,0.025809,-0.316657,-0.998994,39.779999,21.059999,14.639999,14.907,43.924,-73.416,,walk
2025-10-27T18:55:31.834994,3502,69,-3.308787,-9.026440,-1.771709,-11.257991,-14.174055,11.471018,7.949204,5.147615,-13.242727,0.025809,-0.316657,-0.998994,39.779999,21.059999,14.639999,5.057,19.784,-101.105,,walk
2025-10-27T18:55:31.883679,3550,70,-3.308787,-9.026440,-1.771709,-11.257991,-14.174055,11.471018,7.949204,5.147615,-13.242727,0.025809,-0.316657,-0.998994,39.779999,21.059999,14.639999,5.057,19.784,-101.105,,walk
2025-10-27T18:55:31.933649,3600,71,-3.308787,-9.026440,-1.771709,-11.257991,-14.174055,11.471018,7.949204,5.147615,-13.242727,0.025809,-0.316657,-0.998994,34.980000,25.559999,21.119999,-4.226,19.784,-101.105,,walk
2025-10-27T18:55:31.985995,3653,72,-3.308787,-9.026440,-1.771709,-5.373653,-14.498486,6.099932,2.064867,5.472046,-7.871641,0.056352,1.329625,-0.992274,34.980000,25.559999,21.119999,-4.226,19.784,-101.105,,walk
2025-10-27T18:55:32.033635,3700,73,-3.691859,-7.774272,-0.893037,-5.373653,-14.498486,6.099932,1.681794,6.724214,-6.992969,0.056352,1.329625,-0.992274,34.980000,25.559999,21.119999,-1.735,25.257,-96.553,,walk
2025-10-27T18:55:32.084400,3751,74,-3.691859,-7.774272,-0.893037,-5.373653,-14.498486,6.099932,1.681794,6.724214,-6.992969,0.056352,1.329625,-0.992274,34.980000,25.559999,21.119999,-1.735,25.257,-96.553,,walk
2025-10-27T18:55:32.134553,3801,75,-3.691859,-7.774272,-0.893037,-5.558807,-14.192890,6.282300,1.866948,6.418618,-7.175337,-0.463494,0.115224,-0.966618,25.680000,29.279999,28.080000,-17.355,25.257,-96.553,,walk
2025-10-27T18:55:32.183824,3850,76,-4.118027,-9.208399,-1.048660,-5.558807,-14.192890,6.282300,1.440781,4.984491,-7.330960,-0.463494,0.115224,-0.966618,25.680000,29.279999,28.080000,-18.729,23.957,-96.497,,walk
2025-10-27T18:55:32.234781,3901,77,-4.118027,-9.208399,-1.048660,-5.558807,-14.192890,6.282300,1.440781,4.984491,-7.330960,-0.463494,0.115224,-0.966618,25.680000,29.279999,28.080000,-18.729,23.957,-96.497,,walk
2025-10-27T18:55:32.285069,3952,78,-4.118027,-9.208399,-1.048660,-5.558807,-14.192890,6.282300,1.440781,4.984491,-7.330960,-0.463494,0.115224,-0.966618,25.680000,29.279999,28.080000,-18.729,23.957,-96.497,,walk
2025-10-27T18:55:32.334562,4001,79,-4.118027,-9.208399,-1.048660,-4.930586,-14.287849,7.300522,0.812559,5.079451,-8.349182,2.491872,-3.055166,-1.001437,20.939999,35.880001,23.400000,-16.970,23.957,-96.497,,walk
2025-10-27T18:55:32.385114,4052,80,3.847482,-20.782269,6.364088,-4.930586,-14.287849,7.300522,8.778068,-6.494419,-0.936434,2.491872,-3.055166,-1.001437,20.939999,35.880001,23.400000,-65.340,-10.038,-72.974,,walk
2025-10-27T18:55:32.434575,4101,81,3.847482,-20.782269,6.364088,-4.930586,-14.287849,7.300522,8.778068,-6.494419,-0.936434,2.491872,-3.055166,-1.001437,20.939999,35.880001,23.400000,-65.340,-10.038,-72.974,,walk
2025-10-27T18:55:32.484090,4151,82,3.847482,-20.782269,6.364088,-4.930586,-14.287849,7.300522,8.778068,-6.494419,-0.936434,2.491872,-3.055166,-1.001437,20.939999,35.880001,23.400000,-65.340,-10.038,-72.974,,walk
2025-10-27T18:55:32.533854,4200,83,2.279280,-4.663905,0.363919,7.607860,-22.248512,15.301630,-5.328580,17.584607,-14.937711,0.739300,-0.765032,-0.039935,14.219999,44.879997,2.340000,-45.096,-25.977,-85.538,,walk
2025-10-27T18:55:32.583681,4250,84,2.279280,-4.663905,0.363919,7.607860,-22.248512,15.301630,-5.328580,17.584607,-14.937711,0.739300,-0.765032,-0.039935,14.219999,44.879997,2.340000,-45.096,-25.977,-85.538,,walk
2025-10-27T18:55:32.633691,4300,85,2.279280,-4.663905,0.363919,7.607860,-22.248512,15.301630,-5.328580,17.584607,-14.937711,0.739300,-0.765032,-0.039935,14.219999,44.879997,2.340000,-45.096,-25.977,-85.538,,walk
2025-10-27T18:55:32.684870,4351,86,2.279280,-4.663905,0.363919,6.776468,-6.227226,8.937220,-4.497188,1.563321,-8.573301,1.574353,0.256334,0.832380,14.219999,44.879997,2.340000,-45.096,-25.977,-85.538,,walk
2025-10-27T18:55:32.733980,4401,87,3.251326,-9.433454,2.949656,6.776468,-6.227226,8.937220,-3.525142,-3.206228,-5.987563,1.574353,0.256334,0.832380,12.960000,45.000000,1.500000,-57.592,-18.209,-72.637,,walk
2025-10-27T18:55:32.785405,4452,88,3.251326,-9.433454,2.949656,6.776468,-6.227226,8.937220,-3.525142,-3.206228,-5.987563,1.574353,0.256334,0.832380,12.960000,45.000000,1.500000,-57.592,-18.209,-72.637,,walk
2025-10-27T18:55:32.834488,4501,89,3.251326,-9.433454,2.949656,6.776468,-6.227226,8.937220,-3.525142,-3.206228,-5.987563,1.574353,0.256334,0.832380,12.960000,45.000000,1.500000,-57.592,-18.209,-72.637,,walk
2025-10-27T18:55:32.887699,4554,90,3.251326,-9.433454,2.949656,6.892810,-11.830910,11.733842,-3.641484,2.397456,-8.784185,-3.336393,0.175700,-0.841390,12.960000,45.000000,1.500000,-57.592,-18.209,-72.637,,walk
2025-10-27T18:55:32.934378,4601,91,1.426944,-11.217134,-0.368707,6.892810,-11.830910,11.733842,-5.465866,0.613775,-12.102549,-3.336393,0.175700,-0.841390,10.380000,43.799999,11.820000,-52.769,-7.246,-91.883,,walk
2025-10-27T18:55:32.984468,4651,92,1.426944,-11.217134,-0.368707,6.892810,-11.830910,11.733842,-5.465866,0.613775,-12.102549,-3.336393,0.175700,-0.841390,10.380000,43.799999,11.820000,-52.769,-7.246,-91.883,,walk
2025-10-27T18:55:33.035255,4702,93,1.426944,-11.217134,-0.368707,5.691697,-15.253024,7.485812,-4.264753,4.035890,-7.854519,-1.106124,0.434096,-0.426002,10.380000,43.799999,11.820000,-52.769,-7.246,-91.883,,walk
2025-10-27T18:55:33.084758,4751,94,3.033453,-7.537246,-0.047884,5.691697,-15.253024,7.485812,-2.658244,7.715778,-7.533696,-1.106124,0.434096,-0.426002,10.380000,43.799999,11.820000,-70.292,-21.922,-90.364,,walk
2025-10-27T18:55:33.134695,4801,95,3.033453,-7.537246,-0.047884,5.691697,-15.253024,7.485812,-2.658244,7.715778,-7.533696,-1.106124,0.434096,-0.426002,7.200000,41.040001,20.760000,-92.828,-21.922,-90.364,,walk
2025-10-27T18:55:33.184808,4851,96,3.033453,-7.537246,-0.047884,5.691697,-15.253024,7.485812,-2.658244,7.715778,-7.533696,-1.106124,0.434096,-0.426002,7.200000,41.040001,20.760000,-92.828,-21.922,-90.364,,walk
2025-10-27T18:55:33.234952,4902,97,3.033453,-7.537246,-0.047884,8.075073,-11.985744,7.090955,-5.041620,4.448498,-7.138839,0.498008,-0.295277,-0.051542,7.200000,41.040001,20.760000,-92.828,-21.922,-90.364,,walk
2025-10-27T18:55:33.284720,4951,98,2.602497,-12.658443,2.573767,8.075073,-11.985744,7.090955,-5.472576,-0.672699,-4.517189,0.498008,-0.295277,-0.051542,7.200000,41.040001,20.760000,-84.277,-11.391,-78.507,,walk
2025-10-27T18:55:33.334889,5001,99,2.602497,-12.658443,2.573767,8.075073,-11.985744,7.090955,-5.472576,-0.672699,-4.517189,0.498008,-0.295277,-0.051542,7.560000,42.840000,15.839999,-80.361,-11.391,-78.507,,walk
2025-10-27T18:55:33.385278,5052,100,2.602497,-12.658443,2.573767,8.075073,-11.985744,7.090955,-5.472576,-0.672699,-4.517189,0.498008,-0.295277,-0.051542,7.560000,42.840000,15.839999,-80.361,-11.391,-78.507,,walk
2025-10-27T18:55:33.434953,5102,101,3.519476,-11.197981,0.495600,6.451941,-14.792187,11.337256,-2.932464,3.594206,-10.841657,0.922559,2.492712,1.293584,7.560000,42.840000,15.839999,-82.697,-17.432,-87.466,,walk
2025-10-27T18:55:33.484997,5152,102,3.519476,-11.197981,0.495600,6.451941,-14.792187,11.337256,-2.932464,3.594206,-10.841657,0.922559,2.492712,1.293584,7.560000,42.840000,15.839999,-82.697,-17.432,-87.466,,walk
2025-10-27T18:55:33.534279,5201,103,3.519476,-11.197981,0.495600,6.451941,-14.792187,11.337256,-2.932464,3.594206,-10.841657,0.922559,2.492712,1.293584,20.820000,42.599998,3.180000,-30.513,-17.432,-87.466,,walk
2025-10-27T18:55:33.584812,5251,104,3.519476,-11.197981,0.495600,7.044624,-12.144309,9.597672,-3.525147,0.946328,-9.102072,0.344070,-1.350852,-0.115683,20.820000,42.599998,3.180000,-30.513,-17.432,-87.466,,walk
2025-10-27T18:55:33.634934,5302,105,1.647211,-4.261679,-0.239420,7.044624,-12.144309,9.597672,-5.397413,7.882630,-9.837092,0.344070,-1.350852,-0.115683,20.820000,42.599998,3.180000,-23.786,-21.102,-93.215,,walk
2025-10-27T18:55:33.685418,5352,106,1.647211,-4.261679,-0.239420,7.044624,-12.144309,9.597672,-5.397413,7.882630,-9.837092,0.344070,-1.350852,-0.115683,20.820000,42.599998,3.180000,-23.786,-21.102,-93.215,,walk
2025-10-27T18:55:33.735895,5402,107,1.647211,-4.261679,-0.239420,7.044624,-12.144309,9.597672,-5.397413,7.882630,-9.837092,0.344070,-1.350852,-0.115683,19.559999,42.840000,2.460000,-21.729,-21.102,-93.215,,walk
2025-10-27T18:55:33.784570,5451,108,1.647211,-4.261679,-0.239420,5.609555,-6.250081,8.507935,-3.962344,1.988402,-8.747355,-1.126283,-0.110185,-0.447382,19.559999,42.840000,2.460000,-21.729,-21.102,-93.215,,walk
2025-10-27T18:55:33.834965,5502,109,4.857835,-13.757382,-0.780510,5.609555,-6.250081,8.507935,-0.751719,-7.507301,-9.288444,-1.126283,-0.110185,-0.447382,19.559999,42.840000,2.460000,-19.903,-19.420,-93.247,,walk
2025-10-27T18:55:33.884606,5551,110,4.857835,-13.757382,-0.780510,5.609555,-6.250081,8.507935,-0.751719,-7.507301,-9.288444,-1.126283,-0.110185,-0.447382,19.559999,42.840000,2.460000,-19.903,-19.420,-93.247,,walk
2025-10-27T18:55:33.934917,5602,111,4.857835,-13.757382,-0.780510,7.911916,-17.697680,7.664395,-3.054080,3.940297,-8.444905,-0.969901,0.452422,-0.870712,17.279999,42.180000,11.219999,-47.908,-19.420,-93.247,,walk
2025-10-27T18:55:33.983892,5650,112,1.596933,-8.538023,0.146046,7.911916,-17.697680,7.664395,-6.314983,9.159657,-7.518349,-0.969901,0.452422,-0.870712,17.279999,42.180000,11.219999,-45.003,-10.593,-89.020,,walk
2025-10-27T18:55:34.035129,5702,113,1.596933,-8.538023,0.146046,7.911916,-17.697680,7.664395,-6.314983,9.159657,-7.518349,-0.969901,0.452422,-0.870712,17.279999,42.180000,11.219999,-45.003,-10.593,-89.020,,walk
2025-10-27T18:55:34.084526,5751,114,1.596933,-8.538023,0.146046,7.911916,-17.697680,7.664395,-6.314983,9.159657,-7.518349,-0.969901,0.452422,-0.870712,17.279999,42.180000,11.219999,-45.003,-10.593,-89.020,,walk
2025-10-27T18:55:34.135586,5802,115,1.596933,-8.538023,0.146046,5.418683,-13.324444,7.804676,-3.821751,4.786421,-7.658630,-0.782977,-0.184100,-0.631253,11.639999,40.680000,19.980000,-70.929,-10.593,-89.020,,walk
2025-10-27T18:55:34.184204,5851,116,0.821211,-9.055170,0.667982,5.418683,-13.324444,7.804676,-4.597472,4.269274,-7.136694,-0.782977,-0.184100,-0.631253,11.639999,40.680000,19.980000,-67.705,-5.168,-85.781,,walk
2025-10-27T18:55:34.235064,5902,117,0.821211,-9.055170,0.667982,5.418683,-13.324444,7.804676,-4.597472,4.269274,-7.136694,-0.782977,-0.184100,-0.631253,11.639999,40.680000,19.980000,-67.705,-5.168,-85.781,,walk
2025-10-27T18:55:34.284792,5951,118,0.821211,-9.055170,0.667982,5.418683,-13.324444,7.804676,-4.597472,4.269274,-7.136694,-0.782977,-0.184100,-0.631253,11.639999,40.680000,19.980000,-67.705,-5.168,-85.781,,walk
2025-10-27T18:55:34.333852,6000,119,2.798822,-13.383886,0.804452,5.112898,-13.696627,8.165172,-2.314076,0.312740,-7.360720,2.359314,0.570319,0.676610,10.139999,41.219997,18.779999,-75.106,-11.791,-86.560,,walk
2025-10-27T18:55:34.384606,6051,120,2.798822,-13.383886,0.804452,5.112898,-13.696627,8.165172,-2.314076,0.312740,-7.360720,2.359314,0.570319,0.676610,10.139999,41.219997,18.779999,-75.106,-11.791,-86.560,,walk
2025-10-27T18:55:34.433649,6100,121,2.798822,-13.383886,0.804452,5.112898,-13.696627,8.165172,-2.314076,0.312740,-7.360720,2.359314,0.570319,0.676610,10.139999,41.219997,18.779999,-75.106,-11.791,-86.560,,walk
2025-10-27T18:55:34.483967,6151,122,2.798822,-13.383886,0.804452,4.621244,-16.183895,10.024462,-1.822423,2.800009,-9.220010,0.256105,1.556256,1.712026,10.139999,41.219997,18.779999,-75.106,-11.791,-86.560,,walk
2025-10-27T18:55:34.534037,6201,123,3.313575,-7.173327,1.142034,4.621244,-16.183895,10.024462,-1.307669,9.010568,-8.882428,0.256105,1.556256,1.712026,19.500000,42.299999,9.599999,-59.408,-24.522,-80.954,,walk
2025-10-27T18:55:34.583629,6250,124,3.313575,-7.173327,1.142034,4.621244,-16.183895,10.024462,-1.307669,9.010568,-8.882428,0.256105,1.556256,1.712026,19.500000,42.299999,9.599999,-59.408,-24.522,-80.954,,walk
2025-10-27T18:55:34.633840,6300,125,3.313575,-7.173327,1.142034,4.621244,-16.183895,10.024462,-1.307669,9.010568,-8.882428,0.256105,1.556256,1.712026,19.500000,42.299999,9.599999,-59.408,-24.522,-80.954,,walk
2025-10-27T18:55:34.683966,6351,126,3.313575,-7.173327,1.142034,6.132730,-9.161677,10.321819,-2.819155,1.988350,-9.179785,-1.683392,-1.464473,-0.741820,19.500000,42.299999,9.599999,-59.408,-24.522,-80.954,,walk
2025-10-27T18:55:34.734806,6401,127,-1.414973,-11.597813,6.754342,6.132730,-9.161677,10.321819,-7.547703,-2.436135,-3.567477,-1.683392,-1.464473,-0.741820,20.760000,42.000000,5.400000,-48.406,6.018,-59.784,,walk
2025-10-27T18:55:34.783961,6451,128,-1.414973,-11.597813,6.754342,6.132730,-9.161677,10.321819,-7.547703,-2.436135,-3.567477,-1.683392,-1.464473,-0.741820,20.760000,42.000000,5.400000,-48.406,6.018,-59.784,,walk
2025-10-27T18:55:34.834441,6501,129,-1.414973,-11.597813,6.754342,1.207833,-14.343560,15.796011,-2.622807,2.745748,-9.041669,-0.611934,2.202551,0.734642,20.760000,42.000000,5.400000,-48.406,6.018,-59.784,,walk
2025-10-27T18:55:34.884859,6551,130,3.857059,-8.075942,-0.150835,1.207833,-14.343560,15.796011,2.649226,6.267618,-15.946846,-0.611934,2.202551,0.734642,20.760000,42.000000,5.400000,-38.460,-25.525,-91.070,,walk
2025-10-27T18:55:34.934790,6601,131,3.857059,-8.075942,-0.150835,1.207833,-14.343560,15.796011,2.649226,6.267618,-15.946846,-0.611934,2.202551,0.734642,21.660000,40.919998,9.719999,-48.466,-25.525,-91.070,,walk
2025-10-27T18:55:34.985461,6652,132,3.857059,-8.075942,-0.150835,1.207833,-14.343560,15.796011,2.649226,6.267618,-15.946846,-0.611934,2.202551,0.734642,21.660000,40.919998,9.719999,-48.466,-25.525,-91.070,,walk
2025-10-27T18:55:35.035314,6702,133,3.857059,-8.075942,-0.150835,6.269461,-12.433668,8.296676,-2.412402,4.357726,-8.447510,-0.859946,0.034590,-1.094900,21.660000,40.919998,9.719999,-48.466,-25.525,-91.070,,walk
2025-10-27T18:55:35.084796,6751,134,1.118092,-7.817368,-0.337582,6.269461,-12.433668,8.296676,-5.151368,4.616300,-8.634258,-0.859946,0.034590,-1.094900,21.660000,40.919998,9.719999,-28.529,-8.132,-92.473,,walk
2025-10-27T18:55:35.135003,6802,135,1.118092,-7.817368,-0.337582,6.269461,-12.433668,8.296676,-5.151368,4.616300,-8.634258,-0.859946,0.034590,-1.094900,14.099999,40.619999,19.260000,-59.784,-8.132,-92.473,,walk
2025-10-27T18:55:35.184845,6851,136,1.118092,-7.817368,-0.337582,6.269461,-12.433668,8.296676,-5.151368,4.616300,-8.634258,-0.859946,0.034590,-1.094900,14.099999,40.619999,19.260000,-59.784,-8.132,-92.473,,walk
2025-10-27T18:55:35.235060,6902,137,-0.246603,-10.913071,0.512359,4.295820,-13.140367,7.260949,-4.542423,2.227296,-6.748590,-0.754877,-0.155389,-0.719828,14.099999,40.619999,19.260000,-55.089,1.293,-87.312,,walk
2025-10-27T18:55:35.284602,6951,138,-0.246603,-10.913071,0.512359,4.295820,-13.140367,7.260949,-4.542423,2.227296,-6.748590,-0.754877,-0.155389,-0.719828,14.099999,40.619999,19.260000,-55.089,1.293,-87.312,,walk
2025-10-27T18:55:35.334166,7001,139,-0.246603,-10.913071,0.512359,4.295820,-13.140367,7.260949,-4.542423,2.227296,-6.748590,-0.754877,-0.155389,-0.719828,11.400000,39.000000,22.799999,-63.925,1.293,-87.312,,walk
2025-10-27T18:55:35.384997,7052,140,-0.246603,-10.913071,0.512359,2.777750,-15.345926,8.720467,-3.024353,4.432856,-8.208107,2.684906,0.238008,1.391322,11.400000,39.000000,22.799999,-63.925,1.293,-87.312,,walk
2025-10-27T18:55:35.435493,7102,141,5.133468,-12.866739,-1.956063,2.777750,-15.345926,8.720467,2.355718,2.479187,-10.676529,2.684906,0.238008,1.391322,11.400000,39.000000,22.799999,-83.363,-21.526,-98.644,,walk
2025-10-27T18:55:35.484768,7151,142,5.133468,-12.866739,-1.956063,2.777750,-15.345926,8.720467,2.355718,2.479187,-10.676529,2.684906,0.238008,1.391322,11.400000,39.000000,22.799999,-83.363,-21.526,-98.644,,walk
2025-10-27T18:55:35.535038,7202,143,5.133468,-12.866739,-1.956063,2.777750,-15.345926,8.720467,2.355718,2.479187,-10.676529,2.684906,0.238008,1.391322,19.139999,40.680000,12.360000,-42.586,-21.526,-98.644,,walk
2025-10-27T18:55:35.586229,7253,144,2.782062,-4.596867,-0.129287,6.069738,-15.482616,7.448754,-3.287676,10.885749,-7.578041,1.339169,-0.876210,0.896521,19.139999,40.680000,12.360000,-62.697,-31.173,-91.611,,walk
2025-10-27T18:55:35.634894,7301,145,2.782062,-4.596867,-0.129287,6.069738,-15.482616,7.448754,-3.287676,10.885749,-7.578041,1.339169,-0.876210,0.896521,19.139999,40.680000,12.360000,-62.697,-31.173,-91.611,,walk
2025-10-27T18:55:35.685159,7352,146,2.782062,-4.596867,-0.129287,6.069738,-15.482616,7.448754,-3.287676,10.885749,-7.578041,1.339169,-0.876210,0.896521,19.139999,40.680000,12.360000,-62.697,-31.173,-91.611,,walk
2025-10-27T18:55:35.734478,7401,147,2.782062,-4.596867,-0.129287,4.826862,-7.147980,9.116288,-2.044800,2.551113,-9.245575,-0.421344,-0.077198,-1.461419,23.160000,41.879997,6.480000,-44.801,-31.173,-91.611,,walk
2025-10-27T18:55:35.785050,7452,148,-5.083189,-15.713744,8.123826,4.826862,-7.147980,9.116288,-9.910051,-8.565764,-0.992462,-0.421344,-0.077198,-1.461419,23.160000,41.879997,6.480000,-38.433,16.032,-62.662,,walk
2025-10-27T18:55:35.835186,7502,149,-5.083189,-15.713744,8.123826,4.826862,-7.147980,9.116288,-9.910051,-8.565764,-0.992462,-0.421344,-0.077198,-1.461419,23.160000,41.879997,6.480000,-38.433,16.032,-62.662,,walk
2025-10-27T18:55:35.883984,7551,150,-5.083189,-15.713744,8.123826,4.826862,-7.147980,9.116288,-9.910051,-8.565764,-0.992462,-0.421344,-0.077198,-1.461419,23.160000,41.879997,6.480000,-38.433,16.032,-62.662,,walk
2025-10-27T18:55:35.934075,7601,151,-5.083189,-15.713744,8.123826,-3.716246,-18.452728,17.440426,-1.366943,2.738984,-9.316600,-0.057879,1.454852,-0.686231,21.660000,41.579998,9.900000,-43.351,16.032,-62.662,,walk
2025-10-27T18:55:35.984719,7651,152,3.655946,-8.073547,-3.840300,-3.716246,-18.452728,17.440426,7.372192,10.379181,-21.280725,-0.057879,1.454852,-0.686231,21.660000,41.579998,9.900000,7.624,-22.241,-115.439,,walk
2025-10-27T18:55:36.034693,7701,153,3.655946,-8.073547,-3.840300,-3.716246,-18.452728,17.440426,7.372192,10.379181,-21.280725,-0.057879,1.454852,-0.686231,21.660000,41.579998,9.900000,7.624,-22.241,-115.439,,walk
2025-10-27T18:55:36.084926,7752,154,3.655946,-8.073547,-3.840300,-3.716246,-18.452728,17.440426,7.372192,10.379181,-21.280725,-0.057879,1.454852,-0.686231,21.660000,41.579998,9.900000,7.624,-22.241,-115.439,,walk
2025-10-27T18:55:36.135653,7802,155,0.555455,-8.894758,-0.114922,4.920696,-12.624569,4.753781,-4.365241,3.729811,-4.868703,-1.074970,0.523893,-1.002659,13.980000,39.419998,20.639999,-58.855,-3.573,-90.740,,walk
2025-10-27T18:55:36.184984,7852,156,0.555455,-8.894758,-0.114922,4.920696,-12.624569,4.753781,-4.365241,3.729811,-4.868703,-1.074970,0.523893,-1.002659,13.980000,39.419998,20.639999,-58.855,-3.573,-90.740,,walk
2025-10-27T18:55:36.234008,7901,157,0.555455,-8.894758,-0.114922,4.920696,-12.624569,4.753781,-4.365241,3.729811,-4.868703,-1.074970,0.523893,-1.002659,13.980000,39.419998,20.639999,-58.855,-3.573,-90.740,,walk
2025-10-27T18:55:36.284080,7951,158,0.555455,-8.894758,-0.114922,2.466335,-14.526429,7.682696,-1.910881,5.631671,-7.797618,-0.393855,-0.284281,-0.464487,13.980000,39.419998,20.639999,-58.855,-3.573,-90.740,,walk
2025-10-27T18:55:36.333989,8001,159,0.986411,-10.613795,-0.129287,2.466335,-14.526429,7.682696,-1.479924,3.912634,-7.811983,-0.393855,-0.284281,-0.464487,7.980000,37.980000,25.740000,-77.877,-5.309,-90.698,,walk
2025-10-27T18:55:36.384857,8051,160,0.986411,-10.613795,-0.129287,2.466335,-14.526429,7.682696,-1.479924,3.912634,-7.811983,-0.393855,-0.284281,-0.464487,7.980000,37.980000,25.740000,-77.877,-5.309,-90.698,,walk
2025-10-27T18:55:36.434949,8102,161,0.986411,-10.613795,-0.129287,2.466335,-14.526429,7.682696,-1.479924,3.912634,-7.811983,-0.393855,-0.284281,-0.464487,7.980000,37.980000,25.740000,-77.877,-5.309,-90.698,,walk
2025-10-27T18:55:36.485056,8152,162,0.986411,-10.613795,-0.129287,2.803102,-14.912125,8.495915,-1.816691,4.298329,-8.625202,2.989727,0.025427,1.570305,7.980000,37.980000,25.740000,-77.877,-5.309,-90.698,,walk
2025-10-27T18:55:36.534954,8202,163,6.608296,-13.256994,-1.922544,2.803102,-14.912125,8.495915,3.805194,1.655130,-10.418459,2.989727,0.025427,1.570305,14.820000,41.700001,14.460000,-62.668,-26.258,-98.252,,walk
2025-10-27T18:55:36.585039,8252,164,6.608296,-13.256994,-1.922544,2.803102,-14.912125,8.495915,3.805194,1.655130,-10.418459,2.989727,0.025427,1.570305,14.820000,41.700001,14.460000,-62.668,-26.258,-98.252,,walk
2025-10-27T18:55:36.635113,8302,165,6.608296,-13.256994,-1.922544,6.818208,-15.441648,7.635360,-0.209912,2.184654,-9.557904,1.256092,-1.824273,1.006477,14.820000,41.700001,14.460000,-62.668,-26.258,-98.252,,walk
2025-10-27T18:55:36.684331,8351,166,2.525883,-4.477157,-0.208296,6.818208,-15.441648,7.635360,-4.292325,10.964491,-7.843656,1.256092,-1.824273,1.006477,14.820000,41.700001,14.460000,-72.026,-29.404,-92.664,,walk
2025-10-27T18:55:36.734513,8401,167,2.525883,-4.477157,-0.208296,6.818208,-15.441648,7.635360,-4.292325,10.964491,-7.843656,1.256092,-1.824273,1.006477,23.160000,41.040001,6.120000,-40.713,-29.404,-92.664,,walk
2025-10-27T18:55:36.785188,8452,168,2.525883,-4.477157,-0.208296,6.818208,-15.441648,7.635360,-4.292325,10.964491,-7.843656,1.256092,-1.824273,1.006477,23.160000,41.040001,6.120000,-40.713,-29.404,-92.664,,walk
2025-10-27T18:55:36.834341,8501,169,2.525883,-4.477157,-0.208296,4.553269,-6.759016,9.111176,-2.027386,2.281858,-9.319472,-0.459218,-0.151724,-1.433930,23.160000,41.040001,6.120000,-40.713,-29.404,-92.664,,walk
2025-10-27T18:55:36.884652,8551,170,-4.146757,-15.847819,8.068759,4.553269,-6.759016,9.111176,-8.700026,-9.088804,-1.042418,-0.459218,-0.151724,-1.433930,23.160000,41.040001,6.120000,-38.790,13.126,-63.018,,walk
2025-10-27T18:55:36.934586,8601,171,-4.146757,-15.847819,8.068759,4.553269,-6.759016,9.111176,-8.700026,-9.088804,-1.042418,-0.459218,-0.151724,-1.433930,22.139999,41.759998,4.320000,-38.941,13.126,-63.018,,walk
2025-10-27T18:55:36.983805,8650,172,-4.146757,-15.847819,8.068759,-2.771033,-18.113558,17.510342,-1.375724,2.265738,-9.441583,-0.034056,1.256932,-0.588492,22.139999,41.759998,4.320000,-38.941,13.126,-63.018,,walk
2025-10-27T18:55:37.033739,8700,173,4.503493,-7.534852,-3.600879,-2.771033,-18.113558,17.510342,7.274527,10.578706,-21.111221,-0.034056,1.256932,-0.588492,22.139999,41.759998,4.320000,16.285,-28.337,-115.543,,walk
2025-10-27T18:55:37.085222,8752,174,4.503493,-7.534852,-3.600879,-2.771033,-18.113558,17.510342,7.274527,10.578706,-21.111221,-0.034056,1.256932,-0.588492,22.139999,41.759998,4.320000,16.285,-28.337,-115.543,,walk
2025-10-27T18:55:37.135144,8802,175,4.503493,-7.534852,-3.600879,-2.771033,-18.113558,17.510342,7.274527,10.578706,-21.111221,-0.034056,1.256932,-0.588492,16.139999,41.219997,15.059999,-8.846,-28.337,-115.543,,walk
2025-10-27T18:55:37.184520,8851,176,4.503493,-7.534852,-3.600879,5.532732,-11.616638,5.256298,-1.029239,4.081786,-8.857177,-0.926530,0.135994,-1.187751,16.139999,41.219997,15.059999,-8.846,-28.337,-115.543,,walk
2025-10-27T18:55:37.234547,8901,177,0.885855,-8.937854,0.229843,5.532732,-11.616638,5.256298,-4.646878,2.678784,-5.026455,-0.926530,0.135994,-1.187751,16.139999,41.219997,15.059999,-50.419,-5.658,-88.527,,walk
2025-10-27T18:55:37.285196,8952,178,0.885855,-8.937854,0.229843,5.532732,-11.616638,5.256298,-4.646878,2.678784,-5.026455,-0.926530,0.135994,-1.187751,16.139999,41.219997,15.059999,-50.419,-5.658,-88.527,,walk
2025-10-27T18:55:37.335527,9002,179,0.885855,-8.937854,0.229843,5.532732,-11.616638,5.256298,-4.646878,2.678784,-5.026455,-0.926530,0.135994,-1.187751,9.360000,39.480000,23.219999,-74.327,-5.658,-88.527,,walk
2025-10-27T18:55:37.386978,9054,180,0.885855,-8.937854,0.229843,2.203326,-14.180916,8.411800,-1.317472,5.243062,-8.181957,-0.627817,-0.385685,-0.493197,9.360000,39.480000,23.219999,-74.327,-5.658,-88.527,,walk
2025-10-27T18:55:37.434647,9101,181,0.533907,-9.507674,0.902614,2.203326,-14.180916,8.411800,-1.669419,4.673242,-7.509186,-0.627817,-0.385685,-0.493197,9.360000,39.480000,23.219999,-73.590,-3.200,-84.577,,walk
2025-10-27T18:55:37.483690,9150,182,0.533907,-9.507674,0.902614,2.203326,-14.180916,8.411800,-1.669419,4.673242,-7.509186,-0.627817,-0.385685,-0.493197,9.360000,39.480000,23.219999,-73.590,-3.200,-84.577,,walk
2025-10-27T18:55:37.533949,9201,183,0.533907,-9.507674,0.902614,1.897923,-13.602615,9.708354,-1.364016,4.094941,-8.805740,3.360523,0.508011,1.338177,8.220000,40.439999,22.680000,-75.491,-3.200,-84.577,,walk
2025-10-27T18:55:37.583868,9250,184,6.522105,-14.059052,0.368707,1.897923,-13.602615,9.708354,4.624182,-0.456436,-9.339647,3.360523,0.508011,1.338177,8.220000,40.439999,22.680000,-94.750,-24.879,-88.498,,walk
2025-10-27T18:55:37.634475,9301,185,6.522105,-14.059052,0.368707,1.897923,-13.602615,9.708354,4.624182,-0.456436,-9.339647,3.360523,0.508011,1.338177,8.220000,40.439999,22.680000,-94.750,-24.879,-88.498,,walk
2025-10-27T18:55:37.684512,9351,186,6.522105,-14.059052,0.368707,1.897923,-13.602615,9.708354,4.624182,-0.456436,-9.339647,3.360523,0.508011,1.338177,8.220000,40.439999,22.680000,-94.750,-24.879,-88.498,,walk
2025-10-27T18:55:37.734376,9401,187,6.522105,-14.059052,0.368707,6.359771,-14.585275,10.159873,0.162333,0.526223,-9.791166,2.529746,-2.061288,0.989373,19.439999,43.980000,5.400000,-42.797,-24.879,-88.498,,walk
2025-10-27T18:55:37.785295,9452,188,2.188300,-3.541024,-0.258574,6.359771,-14.585275,10.159873,-4.171471,11.044250,-10.418447,2.529746,-2.061288,0.989373,19.439999,43.980000,5.400000,-40.112,-31.647,-94.176,,walk
2025-10-27T18:55:37.834990,9502,189,2.188300,-3.541024,-0.258574,6.359771,-14.585275,10.159873,-4.171471,11.044250,-10.418447,2.529746,-2.061288,0.989373,19.439999,43.980000,5.400000,-40.112,-31.647,-94.176,,walk
2025-10-27T18:55:37.886435,9553,190,2.188300,-3.541024,-0.258574,6.359771,-14.585275,10.159873,-4.171471,11.044250,-10.418447,2.529746,-2.061288,0.989373,19.439999,43.980000,5.400000,-40.112,-31.647,-94.176,,walk
2025-10-27T18:55:37.933907,9601,191,2.025495,-4.891354,8.214806,4.006152,-4.313743,17.801924,-1.980657,-0.577611,-9.587118,-1.454928,0.849485,-0.321544,22.920000,43.139999,-3.780000,-58.322,-11.962,-30.771,,walk
2025-10-27T18:55:37.987047,9654,192,2.025495,-4.891354,8.214806,4.006152,-4.313743,17.801924,-1.980657,-0.577611,-9.587118,-1.454928,0.849485,-0.321544,22.920000,43.139999,-3.780000,-58.322,-11.962,-30.771,,walk
2025-10-27T18:55:38.034444,9701,193,2.025495,-4.891354,8.214806,4.006152,-4.313743,17.801924,-1.980657,-0.577611,-9.587118,-1.454928,0.849485,-0.321544,22.920000,43.139999,-3.780000,-58.322,-11.962,-30.771,,walk
2025-10-27T18:55:38.083902,9751,194,3.653552,-7.673716,-3.845088,4.405370,-8.439477,5.902656,-0.751818,0.765761,-9.747744,-1.759750,1.648496,-1.223792,22.920000,43.139999,-3.780000,32.557,-23.058,-116.614,,walk
2025-10-27T18:55:38.134829,9801,195,3.653552,-7.673716,-3.845088,4.405370,-8.439477,5.902656,-0.751818,0.765761,-9.747744,-1.759750,1.648496,-1.223792,18.119999,46.320000,6.360000,32.898,-23.058,-116.614,,walk
2025-10-27T18:55:38.185113,9852,196,3.653552,-7.673716,-3.845088,4.405370,-8.439477,5.902656,-0.751818,0.765761,-9.747744,-1.759750,1.648496,-1.223792,18.119999,46.320000,6.360000,32.898,-23.058,-116.614,,walk
2025-10-27T18:55:38.234384,9901,197,1.187524,-10.276213,1.865083,4.405370,-8.439477,5.902656,-3.217846,-1.836736,-4.037573,-1.759750,1.648496,-1.223792,18.119999,46.320000,6.360000,-43.674,-6.487,-79.713,,walk
2025-10-27T18:55:38.283973,9951,198,1.187524,-10.276213,1.865083,0.674828,-13.667783,11.052253,0.512696,3.391570,-9.187170,-1.133613,0.371177,-0.889649,18.119999,46.320000,6.360000,-43.674,-6.487,-79.713,,walk
2025-10-27T18:55:38.333964,10001,199,1.187524,-10.276213,1.865083,0.674828,-13.667783,11.052253,0.512696,3.391570,-9.187170,-1.133613,0.371177,-0.889649,10.860000,42.959999,21.480000,-74.362,-6.487,-79.713,,walk
2025-10-27T18:55:38.384375,10051,200,1.187524,-10.276213,1.865083,0.674828,-13.667783,11.052253,0.512696,3.391570,-9.187170,-1.133613,0.371177,-0.889649,10.860000,42.959999,21.480000,-74.362,-6.487,-79.713,,walk
2025-10-27T18:55:38.434327,10101,201,1.836353,-8.403947,0.138864,1.615238,-13.447174,8.546429,0.221115,5.043227,-8.407565,-0.655917,0.194637,-0.633696,10.860000,42.959999,21.480000,-75.913,-12.324,-89.053,,walk
2025-10-27T18:55:38.484290,10151,202,1.836353,-8.403947,0.138864,1.615238,-13.447174,8.546429,0.221115,5.043227,-8.407565,-0.655917,0.194637,-0.633696,10.860000,42.959999,21.480000,-75.913,-12.324,-89.053,,walk
2025-10-27T18:55:38.534338,10201,203,1.836353,-8.403947,0.138864,1.615238,-13.447174,8.546429,0.221115,5.043227,-8.407565,-0.655917,0.194637,-0.633696,4.140000,40.259998,28.260000,-93.900,-12.324,-89.053,,walk
2025-10-27T18:55:38.585840,10252,204,1.836353,-8.403947,0.138864,1.615238,-13.447174,8.546429,0.221115,5.043227,-8.407565,-0.655917,0.194637,-0.633696,4.140000,40.259998,28.260000,-93.900,-12.324,-89.053,,walk
2025-10-27T18:55:38.634451,10301,205,1.043872,-9.950602,-0.316035,1.350777,-15.469819,7.784192,-0.306905,5.519217,-8.100226,0.445473,-0.692339,-0.075976,4.140000,40.259998,28.260000,-87.540,-5.986,-91.819,,walk
2025-10-27T18:55:38.684507,10351,206,1.043872,-9.950602,-0.316035,1.350777,-15.469819,7.784192,-0.306905,5.519217,-8.100226,0.445473,-0.692339,-0.075976,4.140000,40.259998,28.260000,-87.540,-5.986,-91.819,,walk
2025-10-27T18:55:38.734251,10401,207,1.043872,-9.950602,-0.316035,1.350777,-15.469819,7.784192,-0.306905,5.519217,-8.100226,0.445473,-0.692339,-0.075976,6.540000,42.239998,27.119999,-82.042,-5.986,-91.819,,walk
2025-10-27T18:55:38.784953,10452,208,4.888960,-10.585065,-2.418144,4.636644,-14.228182,6.683168,0.252316,3.643117,-9.101312,1.251816,0.754800,1.071229,6.540000,42.239998,27.119999,-106.626,-24.241,-102.868,,walk
2025-10-27T18:55:38.834670,10501,209,4.888960,-10.585065,-2.418144,4.636644,-14.228182,6.683168,0.252316,3.643117,-9.101312,1.251816,0.754800,1.071229,6.540000,42.239998,27.119999,-106.626,-24.241,-102.868,,walk
2025-10-27T18:55:38.883693,10550,210,4.888960,-10.585065,-2.418144,4.636644,-14.228182,6.683168,0.252316,3.643117,-9.101312,1.251816,0.754800,1.071229,6.540000,42.239998,27.119999,-106.626,-24.241,-102.868,,walk
2025-10-27T18:55:38.934315,10601,211,4.888960,-10.585065,-2.418144,4.636644,-14.228182,6.683168,0.252316,3.643117,-9.101312,1.251816,0.754800,1.071229,15.120000,46.980000,13.860000,-44.331,-24.241,-102.868,,walk
2025-10-27T18:55:38.987124,10654,212,0.804452,-7.762301,1.146823,0.091128,-9.659340,10.741755,0.713324,1.897039,-9.594933,0.444863,-0.813902,0.300317,15.120000,46.980000,13.860000,-58.261,-5.854,-81.596,,walk
2025-10-27T18:55:39.033880,10700,213,0.804452,-7.762301,1.146823,0.091128,-9.659340,10.741755,0.713324,1.897039,-9.594933,0.444863,-0.813902,0.300317,15.120000,46.980000,13.860000,-58.261,-5.854,-81.596,,walk
2025-10-27T18:55:39.084352,10751,214,0.804452,-7.762301,1.146823,0.091128,-9.659340,10.741755,0.713324,1.897039,-9.594933,0.444863,-0.813902,0.300317,15.120000,46.980000,13.860000,-58.261,-5.854,-81.596,,walk
2025-10-27T18:55:39.134108,10801,215,-4.139575,-14.238617,6.045659,0.091128,-9.659340,10.741755,-4.230703,-4.579277,-4.696097,0.444863,-0.813902,0.300317,15.660000,46.680000,11.880000,-54.035,14.982,-66.994,,walk
2025-10-27T18:55:39.184028,10851,216,-4.139575,-14.238617,6.045659,-3.809465,-16.816929,15.501535,-0.330109,2.578312,-9.455877,-0.015119,0.144546,0.544052,15.660000,46.680000,11.880000,-54.035,14.982,-66.994,,walk
2025-10-27T18:55:39.234431,10901,217,-4.139575,-14.238617,6.045659,-3.809465,-16.816929,15.501535,-0.330109,2.578312,-9.455877,-0.015119,0.144546,0.544052,15.660000,46.680000,11.880000,-54.035,14.982,-66.994,,walk
2025-10-27T18:55:39.284041,10951,218,-4.139575,-14.238617,6.045659,-3.809465,-16.816929,15.501535,-0.330109,2.578312,-9.455877,-0.015119,0.144546,0.544052,15.660000,46.680000,11.880000,-54.035,14.982,-66.994,,walk
2025-10-27T18:55:39.334302,11001,219,1.862689,-12.095806,-2.238579,1.095100,-15.434654,6.950139,0.767589,3.338848,-9.188718,-1.237460,-0.242132,-1.314200,12.719999,46.500000,15.179999,-38.407,-8.610,-100.485,,walk
2025-10-27T18:55:39.383872,11050,220,1.862689,-12.095806,-2.238579,1.095100,-15.434654,6.950139,0.767589,3.338848,-9.188718,-1.237460,-0.242132,-1.314200,12.719999,46.500000,15.179999,-38.407,-8.610,-100.485,,walk
2025-10-27T18:55:39.434408,11101,221,1.862689,-12.095806,-2.238579,1.095100,-15.434654,6.950139,0.767589,3.338848,-9.188718,-1.237460,-0.242132,-1.314200,12.719999,46.500000,15.179999,-38.407,-8.610,-100.485,,walk
2025-10-27T18:55:39.485291,11152,222,1.862689,-12.095806,-2.238579,1.095100,-15.434654,6.950139,0.767589,3.338848,-9.188718,-1.237460,-0.242132,-1.314200,12.719999,46.500000,15.179999,-38.407,-8.610,-100.485,,walk
2025-10-27T18:55:39.534377,11201,223,-0.636858,-10.077495,1.201889,-0.891145,-14.665747,9.865225,0.254287,4.588252,-8.663336,-0.426842,-0.638583,-0.142561,7.200000,44.459999,21.779999,-72.056,3.591,-83.199,,walk
2025-10-27T18:55:39.584691,11251,224,-0.636858,-10.077495,1.201889,-0.891145,-14.665747,9.865225,0.254287,4.588252,-8.663336,-0.426842,-0.638583,-0.142561,7.200000,44.459999,21.779999,-72.056,3.591,-83.199,,walk
2025-10-27T18:55:39.634437,11301,225,-0.636858,-10.077495,1.201889,-0.891145,-14.665747,9.865225,0.254287,4.588252,-8.663336,-0.426842,-0.638583,-0.142561,7.200000,44.459999,21.779999,-72.056,3.591,-83.199,,walk
2025-10-27T18:55:39.684826,11351,226,1.034295,-9.778219,-0.452504,-0.891145,-14.665747,9.865225,1.925440,4.887527,-10.317729,-0.426842,-0.638583,-0.142561,7.200000,44.459999,21.779999,-76.529,-6.032,-92.650,,walk
2025-10-27T18:55:39.734442,11401,227,1.034295,-9.778219,-0.452504,2.033893,-15.168199,7.678860,-0.999598,5.389979,-8.131364,-0.804357,-0.308105,-0.535958,5.640000,41.579998,24.840000,-82.681,-6.032,-92.650,,walk
2025-10-27T18:55:39.784317,11451,228,1.034295,-9.778219,-0.452504,2.033893,-15.168199,7.678860,-0.999598,5.389979,-8.131364,-0.804357,-0.308105,-0.535958,5.640000,41.579998,24.840000,-82.681,-6.032,-92.650,,walk
2025-10-27T18:55:39.834325,11501,229,1.034295,-9.778219,-0.452504,2.033893,-15.168199,7.678860,-0.999598,5.389979,-8.131364,-0.804357,-0.308105,-0.535958,5.640000,41.579998,24.840000,-82.681,-6.032,-92.650,,walk
2025-10-27T18:55:39.883786,11550,230,2.810793,-12.332832,2.116474,3.964522,-17.121590,10.596238,-1.153730,4.788757,-8.479764,2.334269,-0.515799,1.578247,5.640000,41.579998,24.840000,-89.895,-12.660,-80.262,,walk
2025-10-27T18:55:39.934946,11602,231,2.810793,-12.332832,2.116474,3.964522,-17.121590,10.596238,-1.153730,4.788757,-8.479764,2.334269,-0.515799,1.578247,10.020000,43.259998,18.480000,-78.134,-12.660,-80.262,,walk
2025-10-27T18:55:39.984672,11651,232,2.810793,-12.332832,2.116474,3.964522,-17.121590,10.596238,-1.153730,4.788757,-8.479764,2.334269,-0.515799,1.578247,10.020000,43.259998,18.480000,-78.134,-12.660,-80.262,,walk
2025-10-27T18:55:40.034237,11701,233,3.459621,-10.290578,-0.119710,3.964522,-17.121590,10.596238,-0.504901,6.831012,-10.715948,2.334269,-0.515799,1.578247,10.020000,43.259998,18.480000,-79.872,-18.581,-90.666,,walk
2025-10-27T18:55:40.083887,11750,234,3.459621,-10.290578,-0.119710,3.797626,-12.422863,9.446334,-0.338005,2.132285,-9.566044,1.603674,-1.053361,1.836032,10.020000,43.259998,18.480000,-79.872,-18.581,-90.666,,walk
2025-10-27T18:55:40.134342,11801,235,3.459621,-10.290578,-0.119710,3.797626,-12.422863,9.446334,-0.338005,2.132285,-9.566044,1.603674,-1.053361,1.836032,22.740000,39.480000,2.760000,-24.454,-18.581,-90.666,,walk
2025-10-27T18:55:40.184248,11851,236,3.459621,-10.290578,-0.119710,3.797626,-12.422863,9.446334,-0.338005,2.132285,-9.566044,1.603674,-1.053361,1.836032,22.740000,39.480000,2.760000,-24.454,-18.581,-90.666,,walk
2025-10-27T18:55:40.234002,11901,237,0.553061,-3.711013,3.596091,3.144397,-5.007539,12.964845,-2.591336,1.296526,-9.368754,-1.277166,-0.876821,-0.936686,22.740000,39.480000,2.760000,-54.409,-6.109,-45.901,,walk
2025-10-27T18:55:40.284802,11951,238,0.553061,-3.711013,3.596091,3.144397,-5.007539,12.964845,-2.591336,1.296526,-9.368754,-1.277166,-0.876821,-0.936686,22.740000,39.480000,2.760000,-54.409,-6.109,-45.901,,walk
2025-10-27T18:55:40.335016,12002,239,0.553061,-3.711013,3.596091,3.144397,-5.007539,12.964845,-2.591336,1.296526,-9.368754,-1.277166,-0.876821,-0.936686,22.980000,38.279999,-2.460000,-49.056,-6.109,-45.901,,walk
2025-10-27T18:55:40.384518,12051,240,4.244920,-26.042629,5.490204,3.144397,-5.007539,12.964845,1.100523,-21.035090,-7.474641,-1.277166,-0.876821,-0.936686,22.980000,38.279999,-2.460000,-21.434,-9.062,-78.095,,walk
2025-10-27T18:55:40.434840,12101,241,4.244920,-26.042629,5.490204,7.109266,-27.653278,14.729863,-2.864346,1.610649,-9.239659,0.237779,1.812208,0.857426,22.980000,38.279999,-2.460000,-21.434,-9.062,-78.095,,walk
2025-10-27T18:55:40.484065,12151,242,4.244920,-26.042629,5.490204,7.109266,-27.653278,14.729863,-2.864346,1.610649,-9.239659,0.237779,1.812208,0.857426,22.980000,38.279999,-2.460000,-21.434,-9.062,-78.095,,walk
2025-10-27T18:55:40.533991,12201,243,4.244920,-26.042629,5.490204,7.109266,-27.653278,14.729863,-2.864346,1.610649,-9.239659,0.237779,1.812208,0.857426,22.020000,38.399998,5.220000,-38.020,-9.062,-78.095,,walk
2025-10-27T18:55:40.584078,12251,244,2.509123,-4.477157,2.669535,4.718204,-7.501183,11.732952,-2.209081,3.024025,-9.063417,-0.999834,-0.523741,-0.648968,22.020000,38.399998,5.220000,-61.152,-25.704,-59.194,,walk
2025-10-27T18:55:40.634368,12301,245,2.509123,-4.477157,2.669535,4.718204,-7.501183,11.732952,-2.209081,3.024025,-9.063417,-0.999834,-0.523741,-0.648968,22.020000,38.399998,5.220000,-61.152,-25.704,-59.194,,walk
2025-10-27T18:55:40.684528,12351,246,2.509123,-4.477157,2.669535,4.718204,-7.501183,11.732952,-2.209081,3.024025,-9.063417,-0.999834,-0.523741,-0.648968,22.020000,38.399998,5.220000,-61.152,-25.704,-59.194,,walk
2025-10-27T18:55:40.733932,12401,247,2.509123,-4.477157,2.669535,4.718204,-7.501183,11.732952,-2.209081,3.024025,-9.063417,-0.999834,-0.523741,-0.648968,15.780000,38.219997,12.059999,-75.513,-25.704,-59.194,,walk
2025-10-27T18:55:40.784899,12452,248,1.491588,-8.056788,-1.345541,4.227444,-12.041958,7.186965,-2.735856,3.985169,-8.532506,-1.016938,-0.176769,-0.832228,15.780000,38.219997,12.059999,-31.552,-10.348,-99.481,,walk
2025-10-27T18:55:40.835130,12502,249,1.491588,-8.056788,-1.345541,4.227444,-12.041958,7.186965,-2.735856,3.985169,-8.532506,-1.016938,-0.176769,-0.832228,15.780000,38.219997,12.059999,-31.552,-10.348,-99.481,,walk
2025-10-27T18:55:40.883966,12551,250,1.491588,-8.056788,-1.345541,4.227444,-12.041958,7.186965,-2.735856,3.985169,-8.532506,-1.016938,-0.176769,-0.832228,15.780000,38.219997,12.059999,-31.552,-10.348,-99.481,,walk
2025-10-27T18:55:40.934572,12601,251,-0.371101,-12.708722,2.422932,4.227444,-12.041958,7.186965,-4.598545,-0.666764,-4.764032,-1.016938,-0.176769,-0.832228,11.580000,37.079998,16.559999,-62.224,1.643,-79.206,,walk
2025-10-27T18:55:40.984364,12651,252,-0.371101,-12.708722,2.422932,3.116815,-16.924568,10.561188,-3.487916,4.215846,-8.138256,1.452790,0.416992,0.625908,11.580000,37.079998,16.559999,-62.224,1.643,-79.206,,walk
2025-10-27T18:55:41.035150,12702,253,-0.371101,-12.708722,2.422932,3.116815,-16.924568,10.561188,-3.487916,4.215846,-8.138256,1.452790,0.416992,0.625908,11.580000,37.079998,16.559999,-62.224,1.643,-79.206,,walk
2025-10-27T18:55:41.085250,12752,254,-0.371101,-12.708722,2.422932,3.116815,-16.924568,10.561188,-3.487916,4.215846,-8.138256,1.452790,0.416992,0.625908,11.580000,37.079998,16.559999,-62.224,1.643,-79.206,,walk
2025-10-27T18:55:41.134843,12801,255,0.074220,-11.332056,-0.888249,2.686737,-13.644659,8.276729,-2.612517,2.312603,-9.164977,0.806495,-0.010614,2.300900,17.639999,37.739998,7.440000,-14.602,-0.374,-94.482,,walk
2025-10-27T18:55:41.184564,12851,256,0.074220,-11.332056,-0.888249,2.686737,-13.644659,8.276729,-2.612517,2.312603,-9.164977,0.806495,-0.010614,2.300900,17.639999,37.739998,7.440000,-14.602,-0.374,-94.482,,walk
2025-10-27T18:55:41.234935,12902,257,0.074220,-11.332056,-0.888249,2.686737,-13.644659,8.276729,-2.612517,2.312603,-9.164977,0.806495,-0.010614,2.300900,17.639999,37.739998,7.440000,-14.602,-0.374,-94.482,,walk
2025-10-27T18:55:41.285001,12952,258,0.074220,-11.332056,-0.888249,2.686737,-13.644659,8.276729,-2.612517,2.312603,-9.164977,0.806495,-0.010614,2.300900,17.639999,37.739998,7.440000,-14.602,-0.374,-94.482,,walk
2025-10-27T18:55:41.334456,13001,259,2.688689,-3.208230,-0.521936,7.404428,-4.853533,7.917528,-4.715740,1.645303,-8.439464,-0.544739,-0.867658,-0.105298,26.400000,32.820000,-4.260000,-19.353,-39.597,-99.240,,walk
2025-10-27T18:55:41.383856,13050,260,2.688689,-3.208230,-0.521936,7.404428,-4.853533,7.917528,-4.715740,1.645303,-8.439464,-0.544739,-0.867658,-0.105298,26.400000,32.820000,-4.260000,-19.353,-39.597,-99.240,,walk
2025-10-27T18:55:41.433845,13100,261,-16.132730,-26.550201,9.991303,7.404428,-4.853533,7.917528,-23.537159,-21.696669,2.073776,-0.544739,-0.867658,-0.105298,26.400000,32.820000,-4.260000,11.184,29.627,-69.378,,walk
2025-10-27T18:55:41.483884,13150,262,-16.132730,-26.550201,9.991303,7.404428,-4.853533,7.917528,-23.537159,-21.696669,2.073776,-0.544739,-0.867658,-0.105298,26.400000,32.820000,-4.260000,11.184,29.627,-69.378,,walk
2025-10-27T18:55:41.533659,13200,263,-16.132730,-26.550201,9.991303,-10.724178,-28.774813,17.863323,-5.408552,2.224611,-7.872020,-2.173306,0.168981,-1.110782,23.699999,35.700001,-1.080000,-2.083,29.627,-69.378,,walk
2025-10-27T18:55:41.583640,13250,264,4.295198,1.991976,-8.413524,-10.724178,-28.774813,17.863323,15.019376,30.766788,-26.276847,-2.173306,0.168981,-1.110782,23.699999,35.700001,-1.080000,59.566,-26.417,166.680,,walk
2025-10-27T18:55:41.633627,13300,265,4.295198,1.991976,-8.413524,-10.724178,-28.774813,17.863323,15.019376,30.766788,-26.276847,-2.173306,0.168981,-1.110782,23.699999,35.700001,-1.080000,59.566,-26.417,166.680,,walk
2025-10-27T18:55:41.683730,13350,266,4.295198,1.991976,-8.413524,8.898176,-0.985412,-0.282248,-4.602978,2.977388,-8.131275,-1.338253,0.432874,0.009545,23.699999,35.700001,-1.080000,59.566,-26.417,166.680,,walk
2025-10-27T18:55:41.733717,13400,267,4.295198,1.991976,-8.413524,8.898176,-0.985412,-0.282248,-4.602978,2.977388,-8.131275,-1.338253,0.432874,0.009545,20.820000,36.779999,7.860000,69.040,-26.417,166.680,,walk
2025-10-27T18:55:41.783669,13450,268,0.864307,-8.751106,-0.519542,8.898176,-0.985412,-0.282248,-8.033869,-7.765694,-0.237293,-1.338253,0.432874,0.009545,20.820000,36.779999,7.860000,-21.026,-5.631,-93.398,,walk
2025-10-27T18:55:41.834523,13501,269,0.864307,-8.751106,-0.519542,8.898176,-0.985412,-0.282248,-8.033869,-7.765694,-0.237293,-1.338253,0.432874,0.009545,20.820000,36.779999,7.860000,-21.026,-5.631,-93.398,,walk
2025-10-27T18:55:41.884179,13551,270,0.864307,-8.751106,-0.519542,5.288478,-12.884260,7.194981,-4.424172,4.133154,-7.714523,-0.843452,0.102396,-0.942183,20.820000,36.779999,7.860000,-21.026,-5.631,-93.398,,walk
2025-10-27T18:55:41.933618,13600,271,0.505177,-11.490073,0.811634,5.288478,-12.884260,7.194981,-4.783302,1.394187,-6.383347,-0.843452,0.102396,-0.942183,13.559999,36.419998,16.020000,-56.111,-2.511,-85.959,,walk
2025-10-27T18:55:41.984148,13651,272,0.505177,-11.490073,0.811634,5.288478,-12.884260,7.194981,-4.783302,1.394187,-6.383347,-0.843452,0.102396,-0.942183,13.559999,36.419998,16.020000,-56.111,-2.511,-85.959,,walk
2025-10-27T18:55:42.033652,13700,273,0.505177,-11.490073,0.811634,5.335416,-15.586507,8.298813,-4.830239,4.096434,-7.487179,0.791223,0.190361,0.138437,13.559999,36.419998,16.020000,-56.111,-2.511,-85.959,,walk
2025-10-27T18:55:42.083653,13750,274,0.505177,-11.490073,0.811634,5.335416,-15.586507,8.298813,-4.830239,4.096434,-7.487179,0.791223,0.190361,0.138437,13.559999,36.419998,16.020000,-56.111,-2.511,-85.959,,walk
2025-10-27T18:55:42.133644,13800,275,3.284845,-14.926052,-2.183512,5.335416,-15.586507,8.298813,-2.050571,0.660455,-10.482325,0.791223,0.190361,0.138437,13.740000,38.759998,12.240000,-40.112,-12.285,-98.323,,walk
2025-10-27T18:55:42.183883,13850,276,3.284845,-14.926052,-2.183512,5.335416,-15.586507,8.298813,-2.050571,0.660455,-10.482325,0.791223,0.190361,0.138437,13.740000,38.759998,12.240000,-40.112,-12.285,-98.323,,walk
2025-10-27T18:55:42.234123,13901,277,3.284845,-14.926052,-2.183512,7.691042,-17.336494,6.239371,-4.406197,2.410442,-8.422883,1.136362,0.741972,1.803045,13.740000,38.759998,12.240000,-40.112,-12.285,-98.323,,walk
2025-10-27T18:55:42.283626,13950,278,3.284845,-14.926052,-2.183512,7.691042,-17.336494,6.239371,-4.406197,2.410442,-8.422883,1.136362,0.741972,1.803045,13.740000,38.759998,12.240000,-40.112,-12.285,-98.323,,walk
2025-10-27T18:55:42.333626,14000,279,2.121263,-5.499781,-0.943315,7.691042,-17.336494,6.239371,-5.569779,11.836714,-7.182687,1.136362,0.741972,1.803045,27.660000,34.320000,-1.320000,-5.790,-20.814,-99.733,,walk
2025-10-27T18:55:42.383683,14050,280,2.121263,-5.499781,-0.943315,8.499432,-7.267179,6.293035,-6.378169,1.767399,-7.236350,-0.111025,-1.816332,0.132940,27.660000,34.320000,-1.320000,-5.790,-20.814,-99.733,,walk
2025-10-27T18:55:42.434233,14101,281,2.121263,-5.499781,-0.943315,8.499432,-7.267179,6.293035,-6.378169,1.767399,-7.236350,-0.111025,-1.816332,0.132940,27.660000,34.320000,-1.320000,-5.790,-20.814,-99.733,,walk
2025-10-27T18:55:42.483734,14150,282,-0.071826,-7.237971,4.295198,8.499432,-7.267179,6.293035,-8.571258,0.029209,-1.997837,-0.111025,-1.816332,0.132940,27.660000,34.320000,-1.320000,-30.332,0.489,-59.314,,walk
2025-10-27T18:55:42.533826,14200,283,-0.071826,-7.237971,4.295198,8.499432,-7.267179,6.293035,-8.571258,0.029209,-1.997837,-0.111025,-1.816332,0.132940,24.660000,37.500000,-6.660000,-28.268,0.489,-59.314,,walk
2025-10-27T18:55:42.583877,14250,284,-0.071826,-7.237971,4.295198,6.867470,-9.404245,10.877270,-6.939296,2.166275,-6.582072,-0.635147,-0.735100,0.939893,24.660000,37.500000,-6.660000,-28.268,0.489,-59.314,,walk
2025-10-27T18:55:42.633759,14300,285,-0.071826,-7.237971,4.295198,6.867470,-9.404245,10.877270,-6.939296,2.166275,-6.582072,-0.635147,-0.735100,0.939893,24.660000,37.500000,-6.660000,-28.268,0.489,-59.314,,walk
2025-10-27T18:55:42.684311,14351,286,7.764695,-25.582943,6.847716,6.867470,-9.404245,10.877270,0.897225,-16.178698,-4.029553,-0.635147,-0.735100,0.939893,24.660000,37.500000,-6.660000,-21.820,-16.341,-75.015,,walk
2025-10-27T18:55:42.734978,14402,287,7.764695,-25.582943,6.847716,6.867470,-9.404245,10.877270,0.897225,-16.178698,-4.029553,-0.635147,-0.735100,0.939893,25.680000,36.660000,-2.580000,-29.008,-16.341,-75.015,,walk
2025-10-27T18:55:42.785150,14452,288,7.764695,-25.582943,6.847716,14.297389,-28.081110,13.721793,-6.532694,2.498167,-6.874077,-1.477530,0.014432,-0.424170,25.680000,36.660000,-2.580000,-29.008,-16.341,-75.015,,walk
2025-10-27T18:55:42.834442,14501,289,5.102343,-6.512528,0.600945,14.297389,-28.081110,13.721793,-9.195046,21.568582,-13.120849,-1.477530,0.014432,-0.424170,25.680000,36.660000,-2.580000,-38.022,-37.960,-84.728,,walk
2025-10-27T18:55:42.884587,14551,290,5.102343,-6.512528,0.600945,14.297389,-28.081110,13.721793,-9.195046,21.568582,-13.120849,-1.477530,0.014432,-0.424170,25.680000,36.660000,-2.580000,-38.022,-37.960,-84.728,,walk
2025-10-27T18:55:42.934510,14601,291,5.102343,-6.512528,0.600945,11.658980,-9.853943,7.082857,-6.556637,3.341415,-6.481912,-1.471422,0.568486,-0.920803,20.639999,39.180000,6.720000,-60.569,-37.960,-84.728,,walk
2025-10-27T18:55:42.984408,14651,292,5.102343,-6.512528,0.600945,11.658980,-9.853943,7.082857,-6.556637,3.341415,-6.481912,-1.471422,0.568486,-0.920803,20.639999,39.180000,6.720000,-60.569,-37.960,-84.728,,walk
2025-10-27T18:55:43.034943,14702,293,-2.346318,-9.718364,4.434062,11.658980,-9.853943,7.082857,-14.005298,0.135579,-2.648796,-1.471422,0.568486,-0.920803,20.639999,39.180000,6.720000,-40.125,12.388,-65.475,,walk
2025-10-27T18:55:43.084281,14751,294,-2.346318,-9.718364,4.434062,11.658980,-9.853943,7.082857,-14.005298,0.135579,-2.648796,-1.471422,0.568486,-0.920803,20.639999,39.180000,6.720000,-40.125,12.388,-65.475,,walk
2025-10-27T18:55:43.135413,14802,295,-2.346318,-9.718364,4.434062,4.056706,-13.354506,10.910917,-6.403024,3.636142,-6.476856,0.736245,-0.013057,0.612469,13.980000,39.419998,14.580000,-57.742,12.388,-65.475,,walk
2025-10-27T18:55:43.184701,14851,296,9.589077,-14.573805,-2.030283,4.056706,-13.354506,10.910917,5.532371,-1.219299,-12.941200,0.736245,-0.013057,0.612469,13.980000,39.419998,14.580000,-75.217,-33.091,-97.931,,walk
2025-10-27T18:55:43.234335,14901,297,9.589077,-14.573805,-2.030283,4.056706,-13.354506,10.910917,5.532371,-1.219299,-12.941200,0.736245,-0.013057,0.612469,13.980000,39.419998,14.580000,-75.217,-33.091,-97.931,,walk
2025-10-27T18:55:43.284649,14951,298,9.589077,-14.573805,-2.030283,4.056706,-13.354506,10.910917,5.532371,-1.219299,-12.941200,0.736245,-0.013057,0.612469,13.980000,39.419998,14.580000,-75.217,-33.091,-97.931,,walk
2025-10-27T18:55:43.335625,15002,299,9.589077,-14.573805,-2.030283,14.084002,-17.214880,6.275733,-4.494925,2.641075,-8.306016,1.225548,1.154917,1.686370,24.660000,39.419998,5.520000,-35.261,-33.091,-97.931,,walk
2025-10-27T18:55:43.384393,15051,300,3.150769,-2.578555,0.000000,14.084002,-17.214880,6.275733,-10.933232,14.636325,-6.275733,1.225548,1.154917,1.686370,24.660000,39.419998,5.520000,-63.321,-50.703,-90.000,,walk
2025-10-27T18:55:43.435,15102,301,3.150769,-2.578555,0.000000,14.084002,-17.214880,6.275733,-10.933232,14.636325,-6.275733,1.225548,1.154917,1.686370,24.660000,39.419998,5.520000,-63.321,-50.703,-90.000,,walk
2025-10-27T18:55:43.483968,15151,302,3.150769,-2.578555,0.000000,9.010909,-4.782149,7.548043,-5.860140,2.203594,-7.548043,-0.530689,-0.790078,-0.214032,24.660000,39.419998,5.520000,-63.321,-50.703,-90.000,,walk
2025-10-27T18:55:43.534765,15201,303,3.150769,-2.578555,0.000000,9.010909,-4.782149,7.548043,-5.860140,2.203594,-7.548043,-0.530689,-0.790078,-0.214032,29.099998,35.279999,-5.820000,-39.394,-50.703,-90.000,,walk
2025-10-27T18:55:43.584079,15251,304,-6.378453,-23.897125,16.180614,9.010909,-4.782149,7.548043,-15.389362,-19.114976,8.632572,-0.530689,-0.790078,-0.214032,29.099998,35.279999,-5.820000,-19.981,12.463,-55.898,,walk
2025-10-27T18:55:43.635280,15302,305,-6.378453,-23.897125,16.180614,9.010909,-4.782149,7.548043,-15.389362,-19.114976,8.632572,-0.530689,-0.790078,-0.214032,29.099998,35.279999,-5.820000,-19.981,12.463,-55.898,,walk
2025-10-27T18:55:43.685200,15352,306,-6.378453,-23.897125,16.180614,-0.139764,-26.223442,23.380398,-6.238689,2.326317,-7.199783,-1.006553,0.572152,-1.332526,29.099998,35.279999,-5.820000,-19.981,12.463,-55.898,,walk
2025-10-27T18:55:43.733881,15400,307,5.799056,-1.807622,-2.343924,-0.139764,-26.223442,23.380398,5.938819,24.415820,-25.724321,-1.006553,0.572152,-1.332526,27.959999,37.860001,-2.520000,45.971,-62.959,-142.361,,walk
2025-10-27T18:55:43.784892,15451,308,5.799056,-1.807622,-2.343924,-0.139764,-26.223442,23.380398,5.938819,24.415820,-25.724321,-1.006553,0.572152,-1.332526,27.959999,37.860001,-2.520000,45.971,-62.959,-142.361,,walk
2025-10-27T18:55:43.834564,15501,309,5.799056,-1.807622,-2.343924,10.131193,-5.396635,5.688593,-4.332138,3.589013,-8.032516,-1.484250,1.156139,-0.164552,27.959999,37.860001,-2.520000,45.971,-62.959,-142.361,,walk
2025-10-27T18:55:43.884194,15551,310,5.799056,-1.807622,-2.343924,10.131193,-5.396635,5.688593,-4.332138,3.589013,-8.032516,-1.484250,1.156139,-0.164552,27.959999,37.860001,-2.520000,45.971,-62.959,-142.361,,walk
2025-10-27T18:55:43.934484,15601,311,0.232238,-8.437466,-0.304064,10.131193,-5.396635,5.688593,-9.898956,-3.040831,-5.992657,-1.484250,1.156139,-0.164552,22.680000,38.459999,13.440000,-29.590,-1.576,-92.064,,walk
2025-10-27T18:55:43.984505,15651,312,0.232238,-8.437466,-0.304064,10.131193,-5.396635,5.688593,-9.898956,-3.040831,-5.992657,-1.484250,1.156139,-0.164552,22.680000,38.459999,13.440000,-29.590,-1.576,-92.064,,walk
2025-10-27T18:55:44.034536,15701,313,0.232238,-8.437466,-0.304064,3.514047,-13.053263,7.701817,-3.281809,4.615797,-8.005880,-0.714560,0.280769,-0.886595,22.680000,38.459999,13.440000,-29.590,-1.576,-92.064,,walk
2025-10-27T18:55:44.083987,15751,314,0.232238,-8.437466,-0.304064,3.514047,-13.053263,7.701817,-3.281809,4.615797,-8.005880,-0.714560,0.280769,-0.886595,22.680000,38.459999,13.440000,-29.590,-1.576,-92.064,,walk
2025-10-27T18:55:44.135596,15802,315,0.754174,-10.544364,0.979228,3.514047,-13.053263,7.701817,-2.759873,2.508899,-6.722588,-0.714560,0.280769,-0.886595,14.520000,38.520000,21.059999,-63.015,-4.074,-84.694,,walk
2025-10-27T18:55:44.183987,15851,316,0.754174,-10.544364,0.979228,4.477298,-15.373548,8.659555,-3.723124,4.829184,-7.680327,0.852310,0.276493,0.404775,14.520000,38.520000,21.059999,-63.015,-4.074,-84.694,,walk
2025-10-27T18:55:44.234862,15901,317,0.754174,-10.544364,0.979228,4.477298,-15.373548,8.659555,-3.723124,4.829184,-7.680327,0.852310,0.276493,0.404775,14.520000,38.520000,21.059999,-63.015,-4.074,-84.694,,walk
2025-10-27T18:55:44.284180,15951,318,6.505345,-11.430218,-2.628834,4.477298,-15.373548,8.659555,2.028048,3.943330,-11.288389,0.852310,0.276493,0.404775,14.520000,38.520000,21.059999,-81.276,-29.015,-102.952,,walk
2025-10-27T18:55:44.335057,16002,319,6.505345,-11.430218,-2.628834,4.477298,-15.373548,8.659555,2.028048,3.943330,-11.288389,0.852310,0.276493,0.404775,19.080000,40.559998,12.540000,-45.033,-29.015,-102.952,,walk
2025-10-27T18:55:44.383914,16051,320,6.505345,-11.430218,-2.628834,8.760038,-14.121617,6.527746,-2.254693,2.691400,-9.156580,0.975704,1.376050,1.290529,19.080000,40.559998,12.540000,-45.033,-29.015,-102.952,,walk
2025-10-27T18:55:44.434667,16101,321,6.505345,-11.430218,-2.628834,8.760038,-14.121617,6.527746,-2.254693,2.691400,-9.156580,0.975704,1.376050,1.290529,19.080000,40.559998,12.540000,-45.033,-29.015,-102.952,,walk
2025-10-27T18:55:44.483992,16151,322,1.790863,-3.265691,-0.624887,8.760038,-14.121617,6.527746,-6.969175,10.855926,-7.152633,0.975704,1.376050,1.290529,19.080000,40.559998,12.540000,-48.130,-28.308,-100.833,,walk
2025-10-27T18:55:44.535625,16202,323,1.790863,-3.265691,-0.624887,8.760038,-14.121617,6.527746,-6.969175,10.855926,-7.152633,0.975704,1.376050,1.290529,27.299999,38.099998,1.260000,-15.827,-28.308,-100.833,,walk
2025-10-27T18:55:44.585061,16252,324,1.790863,-3.265691,-0.624887,5.736665,-4.834388,8.214771,-3.945802,1.568697,-8.839658,-0.279624,-0.834060,0.077962,27.299999,38.099998,1.260000,-15.827,-28.308,-100.833,,walk
2025-10-27T18:55:44.635376,16302,325,0.713472,-12.996026,8.992921,5.736665,-4.834388,8.214771,-5.023193,-8.161638,0.778150,-0.279624,-0.834060,0.077962,27.299999,38.099998,1.260000,-41.083,-2.585,-55.318,,walk
2025-10-27T18:55:44.685692,16352,326,0.713472,-12.996026,8.992921,5.736665,-4.834388,8.214771,-5.023193,-8.161638,0.778150,-0.279624,-0.834060,0.077962,27.299999,38.099998,1.260000,-41.083,-2.585,-55.318,,walk
2025-10-27T18:55:44.734483,16401,327,0.713472,-12.996026,8.992921,4.823193,-15.157638,17.630466,-4.109720,2.161612,-8.637546,-0.054825,-0.152335,0.234954,26.279999,38.579998,0.240000,-41.386,-2.585,-55.318,,walk
2025-10-27T18:55:44.785135,16452,328,0.713472,-12.996026,8.992921,4.823193,-15.157638,17.630466,-4.109720,2.161612,-8.637546,-0.054825,-0.152335,0.234954,26.279999,38.579998,0.240000,-41.386,-2.585,-55.318,,walk
2025-10-27T18:55:44.834429,16501,329,5.554847,-3.763685,0.083797,4.823193,-15.157638,17.630466,0.731655,11.393953,-17.546669,-0.054825,-0.152335,0.234954,26.279999,38.579998,0.240000,-57.399,-55.874,-88.725,,walk
2025-10-27T18:55:44.885090,16552,330,5.554847,-3.763685,0.083797,4.823193,-15.157638,17.630466,0.731655,11.393953,-17.546669,-0.054825,-0.152335,0.234954,26.279999,38.579998,0.240000,-57.399,-55.874,-88.725,,walk
2025-10-27T18:55:44.934728,16601,331,5.554847,-3.763685,0.083797,8.372485,-6.777514,8.980288,-2.817638,3.013829,-8.896490,-1.839773,0.186085,-0.903088,22.500000,40.559998,8.400000,-76.834,-55.874,-88.725,,walk
2025-10-27T18:55:44.986737,16653,332,5.554847,-3.763685,0.083797,8.372485,-6.777514,8.980288,-2.817638,3.013829,-8.896490,-1.839773,0.186085,-0.903088,22.500000,40.559998,8.400000,-76.834,-55.874,-88.725,,walk
2025-10-27T18:55:45.035023,16702,333,4.424485,-6.629844,0.423774,8.372485,-6.777514,8.980288,-3.948000,0.147670,-8.556514,-1.839773,0.186085,-0.903088,22.500000,40.559998,8.400000,-57.411,-33.664,-86.343,,walk
2025-10-27T18:55:45.083944,16751,334,4.424485,-6.629844,0.423774,8.372485,-6.777514,8.980288,-3.948000,0.147670,-8.556514,-1.839773,0.186085,-0.903088,22.500000,40.559998,8.400000,-57.411,-33.664,-86.343,,walk
2025-10-27T18:55:45.135019,16802,335,4.424485,-6.629844,0.423774,7.339927,-11.160734,8.617735,-2.915442,4.530890,-8.193961,-0.768316,0.353462,-0.674624,17.219999,38.040001,18.359999,-81.315,-33.664,-86.343,,walk
2025-10-27T18:55:45.184595,16851,336,-0.529119,-9.727941,2.279280,7.339927,-11.160734,8.617735,-7.869046,1.432794,-6.338455,-0.768316,0.353462,-0.674624,17.219999,38.040001,18.359999,-54.683,3.031,-76.813,,walk
2025-10-27T18:55:45.235252,16902,337,-0.529119,-9.727941,2.279280,7.339927,-11.160734,8.617735,-7.869046,1.432794,-6.338455,-0.768316,0.353462,-0.674624,17.219999,38.040001,18.359999,-54.683,3.031,-76.813,,walk
2025-10-27T18:55:45.284557,16951,338,-0.529119,-9.727941,2.279280,2.997593,-14.620710,10.011893,-3.526712,4.892770,-7.732613,0.386220,0.302760,-0.221362,17.219999,38.040001,18.359999,-54.683,3.031,-76.813,,walk
2025-10-27T18:55:45.334660,17001,339,-0.529119,-9.727941,2.279280,2.997593,-14.620710,10.011893,-3.526712,4.892770,-7.732613,0.386220,0.302760,-0.221362,12.420000,38.820000,20.639999,-64.494,3.031,-76.813,,walk
2025-10-27T18:55:45.385499,17052,340,0.598550,-13.395858,0.804452,2.997593,-14.620710,10.011893,-2.399043,1.224853,-9.207442,0.386220,0.302760,-0.221362,12.420000,38.820000,20.639999,-63.912,-2.554,-86.563,,walk
2025-10-27T18:55:45.435011,17102,341,0.598550,-13.395858,0.804452,2.997593,-14.620710,10.011893,-2.399043,1.224853,-9.207442,0.386220,0.302760,-0.221362,12.420000,38.820000,20.639999,-63.912,-2.554,-86.563,,walk
2025-10-27T18:55:45.485365,17152,342,0.598550,-13.395858,0.804452,3.478788,-15.927397,9.830293,-2.880238,2.531539,-9.025841,1.169349,2.172619,1.525712,12.420000,38.820000,20.639999,-63.912,-2.554,-86.563,,walk
2025-10-27T18:55:45.535052,17202,343,1.687912,-5.789479,-0.821211,3.478788,-15.927397,9.830293,-1.790876,10.137918,-10.651504,1.169349,2.172619,1.525712,22.439999,39.299999,8.160000,-23.536,-16.101,-98.073,,walk
2025-10-27T18:55:45.584872,17251,344,1.687912,-5.789479,-0.821211,3.478788,-15.927397,9.830293,-1.790876,10.137918,-10.651504,1.169349,2.172619,1.525712,22.439999,39.299999,8.160000,-23.536,-16.101,-98.073,,walk
2025-10-27T18:55:45.635353,17302,345,1.687912,-5.789479,-0.821211,5.360681,-7.489383,8.111378,-3.672768,1.699904,-8.932589,-0.021838,-0.956844,0.265497,22.439999,39.299999,8.160000,-23.536,-16.101,-98.073,,walk
2025-10-27T18:55:45.685277,17352,346,1.687912,-5.789479,-0.821211,5.360681,-7.489383,8.111378,-3.672768,1.699904,-8.932589,-0.021838,-0.956844,0.265497,22.439999,39.299999,8.160000,-23.536,-16.101,-98.073,,walk
2025-10-27T18:55:45.734721,17401,347,1.371878,-10.750265,8.648156,5.360681,-7.489383,8.111378,-3.988803,-3.260882,0.536778,-0.021838,-0.956844,0.265497,26.039999,37.619999,1.440000,-46.021,-5.678,-51.185,,walk
2025-10-27T18:55:45.784644,17451,348,1.371878,-10.750265,8.648156,5.360681,-7.489383,8.111378,-3.988803,-3.260882,0.536778,-0.021838,-0.956844,0.265497,26.039999,37.619999,1.440000,-46.021,-5.678,-51.185,,walk
2025-10-27T18:55:45.834835,17501,349,1.371878,-10.750265,8.648156,5.399702,-12.867400,17.335152,-4.027825,2.117135,-8.686996,-0.253967,0.318643,-0.088194,26.039999,37.619999,1.440000,-46.021,-5.678,-51.185,,walk
2025-10-27T18:55:45.884826,17551,350,1.371878,-10.750265,8.648156,5.399702,-12.867400,17.335152,-4.027825,2.117135,-8.686996,-0.253967,0.318643,-0.088194,26.039999,37.619999,1.440000,-46.021,-5.678,-51.185,,walk
2025-10-27T18:55:45.934730,17601,351,4.977845,-2.183512,-1.821988,5.399702,-12.867400,17.335152,-0.421857,10.683888,-19.157139,-0.253967,0.318643,-0.088194,24.900000,38.639999,2.880000,35.623,-60.261,-129.843,,walk
2025-10-27T18:55:45.985010,17652,352,4.977845,-2.183512,-1.821988,8.236205,-5.105508,6.953811,-3.258360,2.921996,-8.775799,-1.576491,-0.061926,-0.730824,24.900000,38.639999,2.880000,35.623,-60.261,-129.843,,walk
2025-10-27T18:55:46.035176,17702,353,4.977845,-2.183512,-1.821988,8.236205,-5.105508,6.953811,-3.258360,2.921996,-8.775799,-1.576491,-0.061926,-0.730824,24.900000,38.639999,2.880000,35.623,-60.261,-129.843,,walk
2025-10-27T18:55:46.084222,17751,354,2.882619,-6.936302,-0.632069,8.236205,-5.105508,6.953811,-5.353586,-1.830794,-7.585880,-1.576491,-0.061926,-0.730824,24.900000,38.639999,2.880000,-21.494,-22.483,-95.207,,walk
2025-10-27T18:55:46.135159,17802,355,2.882619,-6.936302,-0.632069,8.236205,-5.105508,6.953811,-5.353586,-1.830794,-7.585880,-1.576491,-0.061926,-0.730824,18.000000,39.779999,14.160000,-55.425,-22.483,-95.207,,walk
2025-10-27T18:55:46.185491,17852,356,2.882619,-6.936302,-0.632069,6.347323,-11.278936,7.449227,-3.464705,4.342635,-8.081296,-0.933249,-0.083918,-0.827341,18.000000,39.779999,14.160000,-55.425,-22.483,-95.207,,walk
2025-10-27T18:55:46.235069,17902,357,2.882619,-6.936302,-0.632069,6.347323,-11.278936,7.449227,-3.464705,4.342635,-8.081296,-0.933249,-0.083918,-0.827341,18.000000,39.779999,14.160000,-55.425,-22.483,-95.207,,walk
2025-10-27T18:55:46.285245,17952,358,1.434127,-11.535563,0.782904,6.347323,-11.278936,7.449227,-4.913197,-0.256627,-6.666323,-0.933249,-0.083918,-0.827341,18.000000,39.779999,14.160000,-49.575,-7.071,-86.117,,walk
2025-10-27T18:55:46.334816,18001,359,1.434127,-11.535563,0.782904,6.347323,-11.278936,7.449227,-4.913197,-0.256627,-6.666323,-0.933249,-0.083918,-0.827341,12.840000,37.860001,20.100000,-66.873,-7.071,-86.117,,walk
2025-10-27T18:55:46.384358,18051,360,1.434127,-11.535563,0.782904,5.229227,-16.164715,8.550671,-3.795100,4.629151,-7.767767,0.731358,0.746859,0.515341,12.840000,37.860001,20.100000,-66.873,-7.071,-86.117,,walk
2025-10-27T18:55:46.434317,18101,361,4.340688,-12.105383,-2.956839,5.229227,-16.164715,8.550671,-0.888539,4.059332,-11.507510,0.731358,0.746859,0.515341,12.840000,37.860001,20.100000,-67.871,-19.205,-103.726,,walk
2025-10-27T18:55:46.484651,18151,362,4.340688,-12.105383,-2.956839,5.229227,-16.164715,8.550671,-0.888539,4.059332,-11.507510,0.731358,0.746859,0.515341,12.840000,37.860001,20.100000,-67.871,-19.205,-103.726,,walk
2025-10-27T18:55:46.535174,18202,363,4.340688,-12.105383,-2.956839,7.087670,-14.486225,6.151152,-2.746983,2.380842,-9.107991,1.173625,1.200732,1.545260,18.480000,39.959999,9.179999,-18.558,-19.205,-103.726,,walk
2025-10-27T18:55:46.584487,18251,364,4.340688,-12.105383,-2.956839,7.087670,-14.486225,6.151152,-2.746983,2.380842,-9.107991,1.173625,1.200732,1.545260,18.480000,39.959999,9.179999,-18.558,-19.205,-103.726,,walk
2025-10-27T18:55:46.633785,18300,365,2.722207,-4.793192,-1.086968,7.087670,-14.486225,6.151152,-4.365463,9.693033,-7.238120,1.173625,1.200732,1.545260,18.480000,39.959999,9.179999,-33.399,-28.981,-102.777,,walk
2025-10-27T18:55:46.685166,18352,366,2.722207,-4.793192,-1.086968,7.087670,-14.486225,6.151152,-4.365463,9.693033,-7.238120,1.173625,1.200732,1.545260,18.480000,39.959999,9.179999,-33.399,-28.981,-102.777,,walk
2025-10-27T18:55:46.734937,18402,367,2.722207,-4.793192,-1.086968,7.206975,-6.547029,7.455924,-4.484768,1.753837,-8.542892,-0.431118,-0.973337,0.231900,27.299999,36.599998,-3.360000,-4.346,-28.981,-102.777,,walk
2025-10-27T18:55:46.785891,18452,368,-1.517924,-14.317625,12.553099,7.206975,-6.547029,7.455924,-8.724899,-7.770597,5.097175,-0.431118,-0.973337,0.231900,27.299999,36.599998,-3.360000,-36.554,4.558,-48.757,,walk
2025-10-27T18:55:46.835825,18502,369,-1.517924,-14.317625,12.553099,7.206975,-6.547029,7.455924,-8.724899,-7.770597,5.097175,-0.431118,-0.973337,0.231900,27.299999,36.599998,-3.360000,-36.554,4.558,-48.757,,walk
2025-10-27T18:55:46.884742,18551,370,-1.517924,-14.317625,12.553099,7.206975,-6.547029,7.455924,-8.724899,-7.770597,5.097175,-0.431118,-0.973337,0.231900,27.299999,36.599998,-3.360000,-36.554,4.558,-48.757,,walk
2025-10-27T18:55:46.934838,18601,371,-1.517924,-14.317625,12.553099,3.079633,-16.539024,20.925541,-4.597557,2.221399,-8.372442,-0.239917,-0.187154,-0.225638,27.719999,36.360001,-1.740000,-37.386,4.558,-48.757,,walk
2025-10-27T18:55:46.984520,18651,372,5.545270,-1.206678,0.184354,3.079633,-16.539024,20.925541,2.465638,15.332347,-20.741187,-0.239917,-0.187154,-0.225638,27.719999,36.360001,-1.740000,-76.493,-77.585,-81.314,,walk
2025-10-27T18:55:47.034735,18701,373,5.545270,-1.206678,0.184354,3.079633,-16.539024,20.925541,2.465638,15.332347,-20.741187,-0.239917,-0.187154,-0.225638,27.719999,36.360001,-1.740000,-76.493,-77.585,-81.314,,walk
2025-10-27T18:55:47.085264,18752,374,5.545270,-1.206678,0.184354,8.836084,-4.360971,8.867146,-3.290814,3.154294,-8.682793,-1.652238,0.429820,-0.502971,27.719999,36.360001,-1.740000,-76.493,-77.585,-81.314,,walk
2025-10-27T18:55:47.134902,18802,375,5.545270,-1.206678,0.184354,8.836084,-4.360971,8.867146,-3.290814,3.154294,-8.682793,-1.652238,0.429820,-0.502971,21.539999,39.480000,11.160000,-102.144,-77.585,-81.314,,walk
2025-10-27T18:55:47.183750,18850,376,3.497929,-7.544429,-0.502782,8.836084,-4.360971,8.867146,-5.338156,-3.183457,-9.369929,-1.652238,0.429820,-0.502971,21.539999,39.480000,11.160000,-47.995,-24.826,-93.813,,walk
2025-10-27T18:55:47.235073,18902,377,3.497929,-7.544429,-0.502782,8.836084,-4.360971,8.867146,-5.338156,-3.183457,-9.369929,-1.652238,0.429820,-0.502971,21.539999,39.480000,11.160000,-47.995,-24.826,-93.813,,walk
2025-10-27T18:55:47.285007,18952,378,3.497929,-7.544429,-0.502782,6.177936,-12.149520,7.730128,-2.680007,4.605091,-8.232910,-0.814131,0.327806,-0.590936,21.539999,39.480000,11.160000,-47.995,-24.826,-93.813,,walk
2025-10-27T18:55:47.333894,19000,379,0.629675,-9.356839,0.725443,6.177936,-12.149520,7.730128,-5.548261,2.792681,-7.004685,-0.814131,0.327806,-0.590936,15.599999,37.020000,19.980000,-59.106,-3.838,-85.567,,walk
2025-10-27T18:55:47.384578,19051,380,0.629675,-9.356839,0.725443,6.177936,-12.149520,7.730128,-5.548261,2.792681,-7.004685,-0.814131,0.327806,-0.590936,15.599999,37.020000,19.980000,-59.106,-3.838,-85.567,,walk
2025-10-27T18:55:47.434294,19101,381,0.629675,-9.356839,0.725443,3.607247,-14.330439,8.635373,-2.977572,4.973599,-7.909930,0.030696,0.235565,-0.072922,15.599999,37.020000,19.980000,-59.106,-3.838,-85.567,,walk
2025-10-27T18:55:47.484017,19151,382,0.629675,-9.356839,0.725443,3.607247,-14.330439,8.635373,-2.977572,4.973599,-7.909930,0.030696,0.235565,-0.072922,15.599999,37.020000,19.980000,-59.106,-3.838,-85.567,,walk
2025-10-27T18:55:47.535223,19202,383,-1.857901,-13.520356,3.785233,3.607247,-14.330439,8.635373,-5.465147,0.810082,-4.850140,0.030696,0.235565,-0.072922,12.780000,37.619999,20.400000,-61.277,7.538,-74.360,,walk
2025-10-27T18:55:47.584595,19251,384,-1.857901,-13.520356,3.785233,3.607247,-14.330439,8.635373,-5.465147,0.810082,-4.850140,0.030696,0.235565,-0.072922,12.780000,37.619999,20.400000,-61.277,7.538,-74.360,,walk
2025-10-27T18:55:47.635076,19302,385,-1.857901,-13.520356,3.785233,1.113461,-16.245998,12.724549,-2.971361,2.725642,-8.939317,1.433243,1.051070,0.887969,12.780000,37.619999,20.400000,-61.277,7.538,-74.360,,walk
2025-10-27T18:55:47.684517,19351,386,-1.857901,-13.520356,3.785233,1.113461,-16.245998,12.724549,-2.971361,2.725642,-8.939317,1.433243,1.051070,0.887969,12.780000,37.619999,20.400000,-61.277,7.538,-74.360,,walk
2025-10-27T18:55:47.734707,19401,387,1.570596,-9.308955,0.079009,1.113461,-16.245998,12.724549,0.457136,6.937043,-12.645541,1.433243,1.051070,0.887969,22.260000,39.599998,6.960000,-27.670,-9.576,-89.514,,walk
2025-10-27T18:55:47.783730,19450,388,1.570596,-9.308955,0.079009,4.649550,-10.673246,9.289268,-3.078954,1.364291,-9.210260,0.259770,-1.216462,0.451811,22.260000,39.599998,6.960000,-27.670,-9.576,-89.514,,walk
2025-10-27T18:55:47.834756,19501,389,1.570596,-9.308955,0.079009,4.649550,-10.673246,9.289268,-3.078954,1.364291,-9.210260,0.259770,-1.216462,0.451811,22.260000,39.599998,6.960000,-27.670,-9.576,-89.514,,walk
2025-10-27T18:55:47.884896,19551,390,1.778892,-4.405331,0.684742,4.649550,-10.673246,9.289268,-2.870658,6.267915,-8.604527,0.259770,-1.216462,0.451811,22.260000,39.599998,6.960000,-48.733,-21.753,-81.165,,walk
2025-10-27T18:55:47.934909,19602,391,1.778892,-4.405331,0.684742,4.649550,-10.673246,9.289268,-2.870658,6.267915,-8.604527,0.259770,-1.216462,0.451811,25.199999,38.040001,2.220000,-37.147,-21.753,-81.165,,walk
2025-10-27T18:55:47.985014,19652,392,1.778892,-4.405331,0.684742,5.419909,-6.236414,9.604369,-3.641017,1.831083,-8.919627,1.342224,-0.052763,1.201343,25.199999,38.040001,2.220000,-37.147,-21.753,-81.165,,walk
2025-10-27T18:55:48.034632,19701,393,1.778892,-4.405331,0.684742,5.419909,-6.236414,9.604369,-3.641017,1.831083,-8.919627,1.342224,-0.052763,1.201343,25.199999,38.040001,2.220000,-37.147,-21.753,-81.165,,walk
2025-10-27T18:55:48.085140,19752,394,6.809409,-21.371243,3.938462,5.419909,-6.236414,9.604369,1.389501,-15.134829,-5.665907,1.342224,-0.052763,1.201343,25.199999,38.040001,2.220000,-35.024,-17.398,-79.558,,walk
2025-10-27T18:55:48.133954,19801,395,6.809409,-21.371243,3.938462,5.419909,-6.236414,9.604369,1.389501,-15.134829,-5.665907,1.342224,-0.052763,1.201343,23.939999,39.840000,5.820000,-43.061,-17.398,-79.558,,walk
2025-10-27T18:55:48.184278,19851,396,6.809409,-21.371243,3.938462,9.203001,-23.985519,13.082098,-2.393592,2.614277,-9.143636,-1.310764,1.116433,-1.458975,23.939999,39.840000,5.820000,-43.061,-17.398,-79.558,,walk
2025-10-27T18:55:48.234974,19902,397,3.823540,-6.495769,1.663970,9.203001,-23.985519,13.082098,-5.379461,17.489751,-11.418128,-1.310764,1.116433,-1.458975,23.939999,39.840000,5.820000,-55.711,-29.692,-75.632,,walk
2025-10-27T18:55:48.285284,19952,398,3.823540,-6.495769,1.663970,9.203001,-23.985519,13.082098,-5.379461,17.489751,-11.418128,-1.310764,1.116433,-1.458975,23.939999,39.840000,5.820000,-55.711,-29.692,-75.632,,walk
2025-10-27T18:55:48.333803,20000,399,3.823540,-6.495769,1.663970,6.624149,-10.679954,10.079383,-2.800609,4.184185,-8.415413,-1.001055,0.179976,-0.495030,18.660000,38.820000,16.740000,-76.378,-29.692,-75.632,,walk
2025-10-27T18:55:48.384462,20051,400,3.823540,-6.495769,1.663970,6.624149,-10.679954,10.079383,-2.800609,4.184185,-8.415413,-1.001055,0.179976,-0.495030,18.660000,38.820000,16.740000,-76.378,-29.692,-75.632,,walk
2025-10-27T18:55:48.434353,20101,401,0.428562,-9.081507,-0.079009,6.624149,-10.679954,10.079383,-6.195587,1.598447,-10.158392,-1.001055,0.179976,-0.495030,18.660000,38.820000,16.740000,-44.041,-2.702,-90.498,,walk
2025-10-27T18:55:48.485106,20152,402,0.428562,-9.081507,-0.079009,6.624149,-10.679954,10.079383,-6.195587,1.598447,-10.158392,-1.001055,0.179976,-0.495030,18.660000,38.820000,16.740000,-44.041,-2.702,-90.498,,walk
2025-10-27T18:55:48.535533,20202,403,0.428562,-9.081507,-0.079009,3.767365,-14.004454,7.717578,-3.338803,4.922947,-7.796587,-0.035277,0.087125,-0.348422,14.340000,37.680000,21.660000,-58.820,-2.702,-90.498,,walk
2025-10-27T18:55:48.585483,20252,404,-0.648829,-13.328820,1.017536,3.767365,-14.004454,7.717578,-4.416193,0.675633,-6.700042,-0.035277,0.087125,-0.348422,14.340000,37.680000,21.660000,-57.082,2.779,-85.634,,walk
2025-10-27T18:55:48.634366,20301,405,-0.648829,-13.328820,1.017536,3.767365,-14.004454,7.717578,-4.416193,0.675633,-6.700042,-0.035277,0.087125,-0.348422,14.340000,37.680000,21.660000,-57.082,2.779,-85.634,,walk
2025-10-27T18:55:48.685039,20352,406,-0.648829,-13.328820,1.017536,3.767365,-14.004454,7.717578,-4.416193,0.675633,-6.700042,-0.035277,0.087125,-0.348422,14.340000,37.680000,21.660000,-57.082,2.779,-85.634,,walk
2025-10-27T18:55:48.735466,20402,407,-0.648829,-13.328820,1.017536,2.631873,-16.900324,9.541126,-3.280702,3.571504,-8.523591,2.703842,-0.625755,0.996092,17.219999,40.739998,13.200000,-40.830,2.779,-85.634,,walk
2025-10-27T18:55:48.784603,20451,408,0.596156,-10.367192,-2.032677,2.631873,-16.900324,9.541126,-2.035717,6.533132,-11.573803,2.703842,-0.625755,0.996092,17.219999,40.739998,13.200000,-20.182,-3.230,-101.093,,walk
2025-10-27T18:55:48.834504,20501,409,0.596156,-10.367192,-2.032677,2.631873,-16.900324,9.541126,-2.035717,6.533132,-11.573803,2.703842,-0.625755,0.996092,17.219999,40.739998,13.200000,-20.182,-3.230,-101.093,,walk
2025-10-27T18:55:48.884172,20551,410,0.596156,-10.367192,-2.032677,3.129752,-12.215992,7.258879,-2.533596,1.848800,-9.291556,1.177901,-2.402151,0.992427,17.219999,40.739998,13.200000,-20.182,-3.230,-101.093,,walk
2025-10-27T18:55:48.934273,20601,411,0.596156,-10.367192,-2.032677,3.129752,-12.215992,7.258879,-2.533596,1.848800,-9.291556,1.177901,-2.402151,0.992427,26.459999,37.860001,1.860000,8.642,-3.230,-101.093,,walk
2025-10-27T18:55:48.984418,20651,412,1.996764,-4.292804,-0.299275,3.129752,-12.215992,7.258879,-1.132988,7.923188,-7.558154,1.177901,-2.402151,0.992427,26.459999,37.860001,1.860000,-23.634,-24.892,-93.988,,walk
2025-10-27T18:55:49.034539,20701,413,1.996764,-4.292804,-0.299275,3.129752,-12.215992,7.258879,-1.132988,7.923188,-7.558154,1.177901,-2.402151,0.992427,26.459999,37.860001,1.860000,-23.634,-24.892,-93.988,,walk
2025-10-27T18:55:49.084896,20751,414,1.996764,-4.292804,-0.299275,5.805844,-6.473264,8.470347,-3.809080,2.180460,-8.769623,-0.204487,0.219682,-1.136438,26.459999,37.860001,1.860000,-23.634,-24.892,-93.988,,walk
2025-10-27T18:55:49.133823,20800,415,7.812580,-4.192247,-3.033453,5.805844,-6.473264,8.470347,2.006736,2.281017,-11.503801,-0.204487,0.219682,-1.136438,25.980000,37.739998,1.800000,16.360,-56.482,-125.889,,walk
2025-10-27T18:55:49.184196,20851,416,7.812580,-4.192247,-3.033453,5.805844,-6.473264,8.470347,2.006736,2.281017,-11.503801,-0.204487,0.219682,-1.136438,25.980000,37.739998,1.800000,16.360,-56.482,-125.889,,walk
2025-10-27T18:55:49.233715,20900,417,7.812580,-4.192247,-3.033453,11.047009,-7.140961,5.742272,-3.234430,2.948713,-8.775725,-0.136681,1.429196,-0.134619,25.980000,37.739998,1.800000,16.360,-56.482,-125.889,,walk
2025-10-27T18:55:49.283801,20950,418,7.812580,-4.192247,-3.033453,11.047009,-7.140961,5.742272,-3.234430,2.948713,-8.775725,-0.136681,1.429196,-0.134619,25.980000,37.739998,1.800000,16.360,-56.482,-125.889,,walk
2025-10-27T18:55:49.333659,21000,419,-4.879383,-15.828666,-0.567426,11.047009,-7.140961,5.742272,-15.926393,-8.687705,-6.309698,-0.136681,1.429196,-0.134619,22.439999,39.660000,10.620000,-4.930,17.122,-92.053,,walk
2025-10-27T18:55:49.383652,21050,420,-4.879383,-15.828666,-0.567426,11.047009,-7.140961,5.742272,-15.926393,-8.687705,-6.309698,-0.136681,1.429196,-0.134619,22.439999,39.660000,10.620000,-4.930,17.122,-92.053,,walk
2025-10-27T18:55:49.433621,21100,421,-4.879383,-15.828666,-0.567426,-1.865705,-20.052404,7.754087,-3.013678,4.223739,-8.321513,-1.059698,-0.303829,-0.790078,22.439999,39.660000,10.620000,-4.930,17.122,-92.053,,walk
2025-10-27T18:55:49.484201,21151,422,-4.879383,-15.828666,-0.567426,-1.865705,-20.052404,7.754087,-3.013678,4.223739,-8.321513,-1.059698,-0.303829,-0.790078,22.439999,39.660000,10.620000,-4.930,17.122,-92.053,,walk
2025-10-27T18:55:49.533819,21200,423,0.727837,-8.806173,-0.536301,-1.865705,-20.052404,7.754087,2.593542,11.246231,-8.290389,-1.059698,-0.303829,-0.790078,17.039999,37.439999,19.619999,-50.493,-4.716,-93.485,,walk
2025-10-27T18:55:49.584688,21251,424,0.727837,-8.806173,-0.536301,4.254226,-14.078466,6.942827,-3.526388,5.272293,-7.479128,-0.219148,0.085292,-0.265345,17.039999,37.439999,19.619999,-50.493,-4.716,-93.485,,walk
2025-10-27T18:55:49.633941,21301,425,0.727837,-8.806173,-0.536301,4.254226,-14.078466,6.942827,-3.526388,5.272293,-7.479128,-0.219148,0.085292,-0.265345,17.039999,37.439999,19.619999,-50.493,-4.716,-93.485,,walk
2025-10-27T18:55:49.683830,21350,426,-0.347159,-14.863803,0.895431,4.254226,-14.078466,6.942827,-4.601385,-0.785336,-6.047395,-0.219148,0.085292,-0.265345,17.039999,37.439999,19.619999,-50.782,1.336,-86.553,,walk
2025-10-27T18:55:49.734387,21401,427,-0.347159,-14.863803,0.895431,4.254226,-14.078466,6.942827,-4.601385,-0.785336,-6.047395,-0.219148,0.085292,-0.265345,14.340000,37.439999,22.740000,-58.866,1.336,-86.553,,walk
2025-10-27T18:55:49.784717,21451,428,-0.347159,-14.863803,0.895431,2.814774,-19.208878,9.098609,-3.161934,4.345075,-8.203178,2.850450,0.135383,1.426752,14.340000,37.439999,22.740000,-58.866,1.336,-86.553,,walk
2025-10-27T18:55:49.834754,21501,429,-0.347159,-14.863803,0.895431,2.814774,-19.208878,9.098609,-3.161934,4.345075,-8.203178,2.850450,0.135383,1.426752,14.340000,37.439999,22.740000,-58.866,1.336,-86.553,,walk
2025-10-27T18:55:49.884241,21551,430,4.041412,-11.810896,2.827552,2.814774,-19.208878,9.098609,1.226638,7.397982,-6.271057,2.850450,0.135383,1.426752,14.340000,37.439999,22.740000,-79.329,-18.406,-76.537,,walk
2025-10-27T18:55:49.934512,21601,431,4.041412,-11.810896,2.827552,2.814774,-19.208878,9.098609,1.226638,7.397982,-6.271057,2.850450,0.135383,1.426752,22.020000,39.660000,11.940000,-57.630,-18.406,-76.537,,walk
2025-10-27T18:55:49.985173,21652,432,4.041412,-11.810896,2.827552,5.668176,-13.790997,12.293436,-1.626764,1.980101,-9.465884,1.666593,-1.670946,0.840321,22.020000,39.660000,11.940000,-57.630,-18.406,-76.537,,walk
2025-10-27T18:55:50.034349,21701,433,1.570596,-4.144363,0.418985,5.668176,-13.790997,12.293436,-4.097580,9.646634,-11.874451,1.666593,-1.670946,0.840321,22.020000,39.660000,11.940000,-54.327,-20.659,-84.227,,walk
2025-10-27T18:55:50.083876,21750,434,1.570596,-4.144363,0.418985,5.668176,-13.790997,12.293436,-4.097580,9.646634,-11.874451,1.666593,-1.670946,0.840321,22.020000,39.660000,11.940000,-54.327,-20.659,-84.227,,walk
2025-10-27T18:55:50.133827,21800,435,1.570596,-4.144363,0.418985,4.687383,-5.974936,9.535150,-3.116786,1.830573,-9.116164,-0.866665,0.647899,-0.938518,25.199999,39.059998,2.460000,-33.556,-20.659,-84.227,,walk
2025-10-27T18:55:50.184484,21851,436,1.570596,-4.144363,0.418985,4.687383,-5.974936,9.535150,-3.116786,1.830573,-9.116164,-0.866665,0.647899,-0.938518,25.199999,39.059998,2.460000,-33.556,-20.659,-84.227,,walk
2025-10-27T18:55:50.234444,21901,437,6.792649,-8.016087,0.040701,4.687383,-5.974936,9.535150,2.105267,-2.041151,-9.494448,-0.866665,0.647899,-0.938518,25.199999,39.059998,2.460000,-46.163,-40.277,-89.709,,walk
2025-10-27T18:55:50.284771,21951,438,6.792649,-8.016087,0.040701,4.687383,-5.974936,9.535150,2.105267,-2.041151,-9.494448,-0.866665,0.647899,-0.938518,25.199999,39.059998,2.460000,-46.163,-40.277,-89.709,,walk
2025-10-27T18:55:50.334617,22001,439,6.792649,-8.016087,0.040701,9.341372,-10.026138,9.294558,-2.548723,2.010052,-9.253856,-0.451277,1.299081,-0.099800,24.900000,38.879997,5.220000,-52.388,-40.277,-89.709,,walk
2025-10-27T18:55:50.384377,22051,440,-4.831499,-15.268423,1.769315,9.341372,-10.026138,9.294558,-14.172872,-5.242285,-7.525243,-0.451277,1.299081,-0.099800,24.900000,38.879997,5.220000,-4.528,17.450,-83.390,,walk
2025-10-27T18:55:50.434368,22101,441,-4.831499,-15.268423,1.769315,9.341372,-10.026138,9.294558,-14.172872,-5.242285,-7.525243,-0.451277,1.299081,-0.099800,24.900000,38.879997,5.220000,-4.528,17.450,-83.390,,walk
2025-10-27T18:55:50.485092,22152,442,-4.831499,-15.268423,1.769315,9.341372,-10.026138,9.294558,-14.172872,-5.242285,-7.525243,-0.451277,1.299081,-0.099800,24.900000,38.879997,5.220000,-4.528,17.450,-83.390,,walk
2025-10-27T18:55:50.535251,22202,443,-4.831499,-15.268423,1.769315,-3.141842,-19.177519,10.602991,-1.689657,3.909096,-8.833676,-0.901484,0.142103,-0.911029,18.959999,38.700001,17.459999,-33.356,17.450,-83.390,,walk
2025-10-27T18:55:50.585098,22252,444,1.982399,-7.872435,0.107739,-3.141842,-19.177519,10.602991,5.124241,11.305084,-10.495252,-0.901484,0.142103,-0.911029,18.959999,38.700001,17.459999,-57.406,-14.133,-89.216,,walk
2025-10-27T18:55:50.635329,22302,445,1.982399,-7.872435,0.107739,-3.141842,-19.177519,10.602991,5.124241,11.305084,-10.495252,-0.901484,0.142103,-0.911029,18.959999,38.700001,17.459999,-57.406,-14.133,-89.216,,walk
2025-10-27T18:55:50.684717,22351,446,1.982399,-7.872435,0.107739,3.783231,-13.028324,8.252904,-1.800832,5.155890,-8.145165,-1.070083,-0.057650,-0.873766,18.959999,38.700001,17.459999,-57.406,-14.133,-89.216,,walk
2025-10-27T18:55:50.735566,22402,447,1.982399,-7.872435,0.107739,3.783231,-13.028324,8.252904,-1.800832,5.155890,-8.145165,-1.070083,-0.057650,-0.873766,11.759999,36.360001,23.820000,-78.078,-14.133,-89.216,,walk
2025-10-27T18:55:50.785063,22452,448,-0.177171,-11.786954,1.335965,3.783231,-13.028324,8.252904,-3.960402,1.241370,-6.916939,-1.070083,-0.057650,-0.873766,11.759999,36.360001,23.820000,-66.291,0.856,-83.534,,walk
2025-10-27T18:55:50.834480,22501,449,-0.177171,-11.786954,1.335965,3.783231,-13.028324,8.252904,-3.960402,1.241370,-6.916939,-1.070083,-0.057650,-0.873766,11.759999,36.360001,23.820000,-66.291,0.856,-83.534,,walk
2025-10-27T18:55:50.884392,22551,450,-0.177171,-11.786954,1.335965,1.524289,-16.500530,9.765488,-1.701460,4.713576,-8.429523,2.783866,-0.494419,0.779235,11.759999,36.360001,23.820000,-66.291,0.856,-83.534,,walk
2025-10-27T18:55:50.934615,22601,451,4.144363,-12.979267,0.658405,1.524289,-16.500530,9.765488,2.620074,3.521263,-9.107082,2.783866,-0.494419,0.779235,14.040000,40.079998,17.520000,-70.672,-17.687,-87.096,,walk
2025-10-27T18:55:50.985165,22652,452,4.144363,-12.979267,0.658405,1.524289,-16.500530,9.765488,2.620074,3.521263,-9.107082,2.783866,-0.494419,0.779235,14.040000,40.079998,17.520000,-70.672,-17.687,-87.096,,walk
2025-10-27T18:55:51.034936,22702,453,4.144363,-12.979267,0.658405,4.736785,-15.039919,10.227758,-0.592422,2.060652,-9.569353,1.076497,-0.574442,1.596573,14.040000,40.079998,17.520000,-70.672,-17.687,-87.096,,walk
2025-10-27T18:55:51.085194,22752,454,4.144363,-12.979267,0.658405,4.736785,-15.039919,10.227758,-0.592422,2.060652,-9.569353,1.076497,-0.574442,1.596573,14.040000,40.079998,17.520000,-70.672,-17.687,-87.096,,walk
2025-10-27T18:55:51.134465,22801,455,1.922544,-3.284845,-0.074220,4.736785,-15.039919,10.227758,-2.814241,11.755074,-10.301979,1.076497,-0.574442,1.596573,24.000000,38.579998,5.580000,-41.906,-30.333,-91.294,,walk
2025-10-27T18:55:51.185415,22852,456,1.922544,-3.284845,-0.074220,4.736785,-15.039919,10.227758,-2.814241,11.755074,-10.301979,1.076497,-0.574442,1.596573,24.000000,38.579998,5.580000,-41.906,-30.333,-91.294,,walk
2025-10-27T18:55:51.235251,22902,457,1.922544,-3.284845,-0.074220,5.029073,-4.814284,9.100732,-3.106529,1.529440,-9.174952,-1.803121,-0.458989,-0.856051,24.000000,38.579998,5.580000,-41.906,-30.333,-91.294,,walk
2025-10-27T18:55:51.284791,22951,458,1.922544,-3.284845,-0.074220,5.029073,-4.814284,9.100732,-3.106529,1.529440,-9.174952,-1.803121,-0.458989,-0.856051,24.000000,38.579998,5.580000,-41.906,-30.333,-91.294,,walk
2025-10-27T18:55:51.334728,23001,459,-1.678335,-6.086360,2.281674,5.029073,-4.814284,9.100732,-6.707408,-1.272076,-6.819058,-1.803121,-0.458989,-0.856051,24.660000,39.540001,2.340000,-22.691,14.478,-69.450,,walk
2025-10-27T18:55:51.384340,23051,460,-1.678335,-6.086360,2.281674,1.301477,-8.036933,11.418750,-2.979812,1.950573,-9.137076,-0.049938,1.618564,0.856204,24.660000,39.540001,2.340000,-22.691,14.478,-69.450,,walk
2025-10-27T18:55:51.435222,23102,461,-1.678335,-6.086360,2.281674,1.301477,-8.036933,11.418750,-2.979812,1.950573,-9.137076,-0.049938,1.618564,0.856204,24.660000,39.540001,2.340000,-22.691,14.478,-69.450,,walk
2025-10-27T18:55:51.484523,23151,462,-1.192312,-14.310443,-4.580108,1.301477,-8.036933,11.418750,-2.493789,-6.273510,-15.998857,-0.049938,1.618564,0.856204,24.660000,39.540001,2.340000,25.264,4.537,-107.747,,walk
2025-10-27T18:55:51.534419,23201,463,-1.192312,-14.310443,-4.580108,1.301477,-8.036933,11.418750,-2.493789,-6.273510,-15.998857,-0.049938,1.618564,0.856204,20.520000,40.980000,11.340000,8.710,4.537,-107.747,,walk
2025-10-27T18:55:51.584847,23251,464,-1.192312,-14.310443,-4.580108,1.510386,-17.932869,4.122967,-2.702699,3.622426,-8.703074,-1.249067,-0.186543,-0.787634,20.520000,40.980000,11.340000,8.710,4.537,-107.747,,walk
2025-10-27T18:55:51.635162,23302,465,-1.192312,-14.310443,-4.580108,1.510386,-17.932869,4.122967,-2.702699,3.622426,-8.703074,-1.249067,-0.186543,-0.787634,20.520000,40.980000,11.340000,8.710,4.537,-107.747,,walk
2025-10-27T18:55:51.684613,23351,466,1.034295,-8.573936,1.824382,1.510386,-17.932869,4.122967,-0.476091,9.358933,-2.298585,-1.249067,-0.186543,-0.787634,20.520000,40.980000,11.340000,-48.976,-6.729,-77.988,,walk
2025-10-27T18:55:51.735288,23402,467,1.034295,-8.573936,1.824382,1.510386,-17.932869,4.122967,-0.476091,9.358933,-2.298585,-1.249067,-0.186543,-0.787634,16.680000,38.820000,19.980000,-64.181,-6.729,-77.988,,walk
2025-10-27T18:55:51.784583,23451,468,1.034295,-8.573936,1.824382,4.272471,-13.360259,9.747479,-3.238176,4.786324,-7.923098,-0.792750,-0.176158,-0.531682,16.680000,38.820000,19.980000,-64.181,-6.729,-77.988,,walk
2025-10-27T18:55:51.833863,23500,469,0.217872,-13.733440,2.370260,4.272471,-13.360259,9.747479,-4.054599,-0.373181,-7.377220,-0.792750,-0.176158,-0.531682,16.680000,38.820000,19.980000,-58.346,-0.896,-80.208,,walk
2025-10-27T18:55:51.883951,23551,470,0.217872,-13.733440,2.370260,4.272471,-13.360259,9.747479,-4.054599,-0.373181,-7.377220,-0.792750,-0.176158,-0.531682,16.680000,38.820000,19.980000,-58.346,-0.896,-80.208,,walk
2025-10-27T18:55:51.934307,23601,471,0.217872,-13.733440,2.370260,3.513673,-17.814264,10.656059,-3.295801,4.080824,-8.285800,3.003166,-0.367970,1.216614,14.099999,38.459999,20.400000,-62.841,-0.896,-80.208,,walk
2025-10-27T18:55:51.984388,23651,472,0.217872,-13.733440,2.370260,3.513673,-17.814264,10.656059,-3.295801,4.080824,-8.285800,3.003166,-0.367970,1.216614,14.099999,38.459999,20.400000,-62.841,-0.896,-80.208,,walk
2025-10-27T18:55:52.034584,23701,473,3.732560,-12.591406,2.485181,3.513673,-17.814264,10.656059,0.218887,5.222858,-8.170878,3.003166,-0.367970,1.216614,14.099999,38.459999,20.400000,-75.593,-16.216,-78.835,,walk
2025-10-27T18:55:52.084897,23751,474,3.732560,-12.591406,2.485181,3.513673,-17.814264,10.656059,0.218887,5.222858,-8.170878,3.003166,-0.367970,1.216614,14.099999,38.459999,20.400000,-75.593,-16.216,-78.835,,walk
2025-10-27T18:55:52.135027,23802,475,3.732560,-12.591406,2.485181,5.856420,-14.677809,11.828943,-2.123859,2.086403,-9.343762,1.336726,-1.254946,1.273425,24.299999,39.299999,7.920000,-45.811,-16.216,-78.835,,walk
2025-10-27T18:55:52.184498,23851,476,2.674323,-4.563348,0.071826,5.856420,-14.677809,11.828943,-3.182096,10.114460,-11.757117,1.336726,-1.254946,1.273425,24.299999,39.299999,7.920000,-49.322,-30.369,-89.098,,walk
2025-10-27T18:55:52.234562,23901,477,2.674323,-4.563348,0.071826,5.856420,-14.677809,11.828943,-3.182096,10.114460,-11.757117,1.336726,-1.254946,1.273425,24.299999,39.299999,7.920000,-49.322,-30.369,-89.098,,walk
2025-10-27T18:55:52.284975,23952,478,2.674323,-4.563348,0.071826,5.856420,-14.677809,11.828943,-3.182096,10.114460,-11.757117,1.336726,-1.254946,1.273425,24.299999,39.299999,7.920000,-49.322,-30.369,-89.098,,walk
2025-10-27T18:55:52.334729,24001,479,2.674323,-4.563348,0.071826,6.547099,-6.565197,8.856118,-3.872776,2.001849,-8.784292,-1.720044,-0.350866,-1.144991,26.219999,38.939999,1.380000,-34.481,-30.369,-89.098,,walk
2025-10-27T18:55:52.384315,24051,480,2.128445,-0.328006,-1.958457,6.547099,-6.565197,8.856118,-4.418654,6.237192,-10.814575,-1.720044,-0.350866,-1.144991,26.219999,38.939999,1.380000,64.309,-46.987,-170.492,,walk
2025-10-27T18:55:52.434412,24101,481,2.128445,-0.328006,-1.958457,6.547099,-6.565197,8.856118,-4.418654,6.237192,-10.814575,-1.720044,-0.350866,-1.144991,26.219999,38.939999,1.380000,64.309,-46.987,-170.492,,walk
2025-10-27T18:55:52.485006,24152,482,2.128445,-0.328006,-1.958457,5.654924,-2.191755,7.000354,-3.526479,1.863749,-8.958811,0.322079,2.146962,0.186085,26.219999,38.939999,1.380000,64.309,-46.987,-170.492,,walk
2025-10-27T18:55:52.534615,24201,483,2.128445,-0.328006,-1.958457,5.654924,-2.191755,7.000354,-3.526479,1.863749,-8.958811,0.322079,2.146962,0.186085,24.840000,39.840000,4.020000,68.655,-46.987,-170.492,,walk
2025-10-27T18:55:52.585040,24252,484,-2.104503,-13.036728,-4.010288,5.654924,-2.191755,7.000354,-7.759428,-10.844973,-11.010642,0.322079,2.146962,0.186085,24.840000,39.840000,4.020000,24.631,8.771,-107.099,,walk
2025-10-27T18:55:52.634729,24301,485,-2.104503,-13.036728,-4.010288,5.654924,-2.191755,7.000354,-7.759428,-10.844973,-11.010642,0.322079,2.146962,0.186085,24.840000,39.840000,4.020000,24.631,8.771,-107.099,,walk
2025-10-27T18:55:52.684894,24351,486,-2.104503,-13.036728,-4.010288,0.579420,-16.421341,4.793740,-2.683923,3.384613,-8.804028,-1.191035,-0.082696,-0.860938,24.840000,39.840000,4.020000,24.631,8.771,-107.099,,walk
2025-10-27T18:55:52.733659,24400,487,1.680730,-8.789413,-0.217872,0.579420,-16.421341,4.793740,1.101310,7.631927,-5.011612,-1.191035,-0.082696,-0.860938,18.480000,39.419998,15.000000,-48.315,-10.822,-91.420,,walk
2025-10-27T18:55:52.785159,24452,488,1.680730,-8.789413,-0.217872,0.579420,-16.421341,4.793740,1.101310,7.631927,-5.011612,-1.191035,-0.082696,-0.860938,18.480000,39.419998,15.000000,-48.315,-10.822,-91.420,,walk
2025-10-27T18:55:52.834835,24501,489,1.680730,-8.789413,-0.217872,5.156467,-13.283308,7.775499,-3.475738,4.493895,-7.993371,-1.167211,-0.347201,-0.914694,18.480000,39.419998,15.000000,-48.315,-10.822,-91.420,,walk
2025-10-27T18:55:52.884494,24551,490,1.680730,-8.789413,-0.217872,5.156467,-13.283308,7.775499,-3.475738,4.493895,-7.993371,-1.167211,-0.347201,-0.914694,18.480000,39.419998,15.000000,-48.315,-10.822,-91.420,,walk
2025-10-27T18:55:52.934432,24601,491,1.898602,-13.752594,2.303222,5.156467,-13.283308,7.775499,-3.257866,-0.469286,-5.472277,-1.167211,-0.347201,-0.914694,12.540000,38.459999,22.320000,-72.487,-7.754,-80.493,,walk
2025-10-27T18:55:52.985491,24652,492,1.898602,-13.752594,2.303222,5.156467,-13.283308,7.775499,-3.257866,-0.469286,-5.472277,-1.167211,-0.347201,-0.914694,12.540000,38.459999,22.320000,-72.487,-7.754,-80.493,,walk
2025-10-27T18:55:53.034895,24701,493,1.898602,-13.752594,2.303222,5.221897,-17.326097,10.809455,-3.323295,3.573503,-8.506233,3.147941,0.457920,1.128650,12.540000,38.459999,22.320000,-72.487,-7.754,-80.493,,walk
2025-10-27T18:55:53.084212,24751,494,1.898602,-13.752594,2.303222,5.221897,-17.326097,10.809455,-3.323295,3.573503,-8.506233,3.147941,0.457920,1.128650,12.540000,38.459999,22.320000,-72.487,-7.754,-80.493,,walk
2025-10-27T18:55:53.135208,24802,495,3.957615,-13.309667,2.449268,5.221897,-17.326097,10.809455,-1.264282,4.016431,-8.360187,3.147941,0.457920,1.128650,17.279999,42.599998,9.660000,-57.285,-16.301,-79.573,,walk
2025-10-27T18:55:53.184008,24851,496,3.957615,-13.309667,2.449268,6.018740,-14.858616,11.910888,-2.061125,1.548949,-9.461619,1.334282,-1.874974,1.374829,17.279999,42.599998,9.660000,-57.285,-16.301,-79.573,,walk
2025-10-27T18:55:53.234556,24901,497,3.957615,-13.309667,2.449268,6.018740,-14.858616,11.910888,-2.061125,1.548949,-9.461619,1.334282,-1.874974,1.374829,17.279999,42.599998,9.660000,-57.285,-16.301,-79.573,,walk
2025-10-27T18:55:53.284159,24951,498,2.501941,-3.830723,0.083797,6.018740,-14.858616,11.910888,-3.516799,11.027893,-11.827091,1.334282,-1.874974,1.374829,17.279999,42.599998,9.660000,-63.546,-33.143,-88.747,,walk
2025-10-27T18:55:53.334744,25001,499,2.501941,-3.830723,0.083797,6.018740,-14.858616,11.910888,-3.516799,11.027893,-11.827091,1.334282,-1.874974,1.374829,26.279999,38.099998,-3.300000,-27.579,-33.143,-88.747,,walk
2025-10-27T18:55:53.384596,25051,500,2.501941,-3.830723,0.083797,7.019951,-5.330362,8.657522,-4.518010,1.499639,-8.573725,-1.877036,-0.668516,-0.917749,26.279999,38.099998,-3.300000,-27.579,-33.143,-88.747,,walk
2025-10-27T18:55:53.435363,25102,501,2.501941,-3.830723,0.083797,7.019951,-5.330362,8.657522,-4.518010,1.499639,-8.573725,-1.877036,-0.668516,-0.917749,26.279999,38.099998,-3.300000,-27.579,-33.143,-88.747,,walk
2025-10-27T18:55:53.484211,25151,502,1.577779,-1.927332,-0.646434,7.019951,-5.330362,8.657522,-5.442172,3.403029,-9.303957,-1.877036,-0.668516,-0.917749,26.279999,38.099998,-3.300000,-1.734,-37.816,-108.542,,walk
2025-10-27T18:55:53.535041,25202,503,1.577779,-1.927332,-0.646434,7.019951,-5.330362,8.657522,-5.442172,3.403029,-9.303957,-1.877036,-0.668516,-0.917749,25.799999,39.360001,-1.800000,-3.020,-37.816,-108.542,,walk
2025-10-27T18:55:53.584464,25251,504,1.577779,-1.927332,-0.646434,5.887418,-3.785087,7.964357,-4.309639,1.857755,-8.610791,-0.013897,1.798769,0.314367,25.799999,39.360001,-1.800000,-3.020,-37.816,-108.542,,walk
2025-10-27T18:55:53.634684,25301,505,-0.914585,-13.558663,-5.415984,5.887418,-3.785087,7.964357,-6.802003,-9.773576,-13.380341,-0.013897,1.798769,0.314367,25.799999,39.360001,-1.800000,34.722,3.584,-111.774,,walk
2025-10-27T18:55:53.683975,25351,506,-0.914585,-13.558663,-5.415984,5.887418,-3.785087,7.964357,-6.802003,-9.773576,-13.380341,-0.013897,1.798769,0.314367,25.799999,39.360001,-1.800000,34.722,3.584,-111.774,,walk
2025-10-27T18:55:53.735487,25402,507,-0.914585,-13.558663,-5.415984,3.023214,-16.965338,2.894140,-3.937799,3.406674,-8.310123,-1.118342,0.068799,-0.405233,20.760000,40.739998,9.900000,18.506,3.584,-111.774,,walk
2025-10-27T18:55:53.785201,25452,508,-0.914585,-13.558663,-5.415984,3.023214,-16.965338,2.894140,-3.937799,3.406674,-8.310123,-1.118342,0.068799,-0.405233,20.760000,40.739998,9.900000,18.506,3.584,-111.774,,walk
2025-10-27T18:55:53.834674,25501,509,0.557849,-9.404723,0.019154,3.023214,-16.965338,2.894140,-2.465365,7.560615,-2.874986,-1.118342,0.068799,-0.405233,20.760000,40.739998,9.900000,-29.071,-3.395,-89.883,,walk
2025-10-27T18:55:53.884484,25551,510,0.557849,-9.404723,0.019154,3.023214,-16.965338,2.894140,-2.465365,7.560615,-2.874986,-1.118342,0.068799,-0.405233,20.760000,40.739998,9.900000,-29.071,-3.395,-89.883,,walk
2025-10-27T18:55:53.933787,25600,511,0.557849,-9.404723,0.019154,4.788465,-13.846561,7.670437,-4.230616,4.441838,-7.651284,-0.927752,-0.488921,-0.532293,16.080000,38.759998,18.180000,-52.017,-3.395,-89.883,,walk
2025-10-27T18:55:53.985373,25652,512,-0.234632,-12.531551,0.809240,4.788465,-13.846561,7.670437,-5.023096,1.315010,-6.861197,-0.927752,-0.488921,-0.532293,16.080000,38.759998,18.180000,-51.088,1.070,-86.305,,walk
2025-10-27T18:55:54.034726,25701,513,-0.234632,-12.531551,0.809240,4.788465,-13.846561,7.670437,-5.023096,1.315010,-6.861197,-0.927752,-0.488921,-0.532293,16.080000,38.759998,18.180000,-51.088,1.070,-86.305,,walk
2025-10-27T18:55:54.085688,25752,514,-0.234632,-12.531551,0.809240,4.788465,-13.846561,7.670437,-5.023096,1.315010,-6.861197,-0.927752,-0.488921,-0.532293,16.080000,38.759998,18.180000,-51.088,1.070,-86.305,,walk
2025-10-27T18:55:54.135594,25802,515,-0.234632,-12.531551,0.809240,3.891398,-16.455845,8.793340,-4.126030,3.924294,-7.984100,3.030044,0.067577,1.003422,17.699999,39.299999,14.219999,-42.380,1.070,-86.305,,walk
2025-10-27T18:55:54.184287,25851,516,4.546589,-10.953772,2.317587,3.891398,-16.455845,8.793340,0.655191,5.502073,-6.475753,3.030044,0.067577,1.003422,17.699999,39.299999,14.219999,-68.139,-22.101,-78.054,,walk
2025-10-27T18:55:54.235430,25902,517,4.546589,-10.953772,2.317587,3.891398,-16.455845,8.793340,0.655191,5.502073,-6.475753,3.030044,0.067577,1.003422,17.699999,39.299999,14.219999,-68.139,-22.101,-78.054,,walk
2025-10-27T18:55:54.284406,25951,518,4.546589,-10.953772,2.317587,7.469479,-12.253935,11.587772,-2.922890,1.300163,-9.270185,1.269531,-0.253127,0.974101,17.699999,39.299999,14.219999,-68.139,-22.101,-78.054,,walk
2025-10-27T18:55:54.335122,26002,519,4.546589,-10.953772,2.317587,7.469479,-12.253935,11.587772,-2.922890,1.300163,-9.270185,1.269531,-0.253127,0.974101,24.840000,39.719997,0.840000,-38.610,-22.101,-78.054,,walk
2025-10-27T18:55:54.383898,26050,520,3.138798,-4.292804,-0.332794,7.469479,-12.253935,11.587772,-4.330681,7.961131,-11.920566,1.269531,-0.253127,0.974101,24.840000,39.719997,0.840000,-31.920,-36.092,-94.433,,walk
2025-10-27T18:55:54.434392,26101,521,3.138798,-4.292804,-0.332794,7.469479,-12.253935,11.587772,-4.330681,7.961131,-11.920566,1.269531,-0.253127,0.974101,24.840000,39.719997,0.840000,-31.920,-36.092,-94.433,,walk
2025-10-27T18:55:54.484211,26151,522,3.138798,-4.292804,-0.332794,8.128407,-5.271748,8.052632,-4.989609,0.978944,-8.385426,-1.950340,-0.857884,-0.228693,24.840000,39.719997,0.840000,-31.920,-36.092,-94.433,,walk
2025-10-27T18:55:54.533874,26200,523,-2.147599,-3.308787,1.120486,8.128407,-5.271748,8.052632,-10.276006,1.962961,-6.932146,-1.950340,-0.857884,-0.228693,23.100000,39.000000,-3.180000,4.809,31.582,-71.292,,walk
2025-10-27T18:55:54.584796,26251,524,-2.147599,-3.308787,1.120486,8.128407,-5.271748,8.052632,-10.276006,1.962961,-6.932146,-1.950340,-0.857884,-0.228693,23.100000,39.000000,-3.180000,4.809,31.582,-71.292,,walk
2025-10-27T18:55:54.635018,26302,525,-2.147599,-3.308787,1.120486,2.982610,-4.873079,9.330492,-5.130208,1.564293,-8.210006,0.056963,3.027219,0.473191,23.100000,39.000000,-3.180000,4.809,31.582,-71.292,,walk
2025-10-27T18:55:54.685520,26352,526,-2.147599,-3.308787,1.120486,2.982610,-4.873079,9.330492,-5.130208,1.564293,-8.210006,0.056963,3.027219,0.473191,23.100000,39.000000,-3.180000,4.809,31.582,-71.292,,walk
2025-10-27T18:55:54.734580,26401,527,-0.447716,-11.626543,-6.177340,2.982610,-4.873079,9.330492,-3.430325,-6.753464,-15.507832,0.056963,3.027219,0.473191,21.900000,39.959999,2.580000,37.936,1.948,-117.982,,walk
2025-10-27T18:55:54.785696,26452,528,-0.447716,-11.626543,-6.177340,2.982610,-4.873079,9.330492,-3.430325,-6.753464,-15.507832,0.056963,3.027219,0.473191,21.900000,39.959999,2.580000,37.936,1.948,-117.982,,walk
2025-10-27T18:55:54.834331,26501,529,-0.447716,-11.626543,-6.177340,3.799860,-14.575947,2.155049,-4.247575,2.949404,-8.332389,-1.276556,-0.831006,-0.908586,21.900000,39.959999,2.580000,37.936,1.948,-117.982,,walk
2025-10-27T18:55:54.883989,26551,530,-0.447716,-11.626543,-6.177340,3.799860,-14.575947,2.155049,-4.247575,2.949404,-8.332389,-1.276556,-0.831006,-0.908586,21.900000,39.959999,2.580000,37.936,1.948,-117.982,,walk
2025-10-27T18:55:54.934747,26601,531,2.894590,-8.595484,0.143652,3.799860,-14.575947,2.155049,-0.905270,5.980463,-2.011397,-1.276556,-0.831006,-0.908586,18.900000,39.000000,11.940000,-51.918,-18.609,-89.043,,walk
2025-10-27T18:55:54.984624,26651,532,2.894590,-8.595484,0.143652,7.490727,-12.958935,7.627337,-4.596137,4.363451,-7.483684,-1.176985,0.148211,-0.851775,18.900000,39.000000,11.940000,-51.918,-18.609,-89.043,,walk
2025-10-27T18:55:55.035850,26702,533,2.894590,-8.595484,0.143652,7.490727,-12.958935,7.627337,-4.596137,4.363451,-7.483684,-1.176985,0.148211,-0.851775,18.900000,39.000000,11.940000,-51.918,-18.609,-89.043,,walk
2025-10-27T18:55:55.084057,26751,534,0.292093,-11.753435,-0.316035,7.490727,-12.958935,7.627337,-7.198634,1.205500,-7.943371,-1.176985,0.148211,-0.851775,18.900000,39.000000,11.940000,-31.402,-1.423,-91.540,,walk
2025-10-27T18:55:55.134615,26801,535,0.292093,-11.753435,-0.316035,7.490727,-12.958935,7.627337,-7.198634,1.205500,-7.943371,-1.176985,0.148211,-0.851775,13.440000,37.559998,19.920000,-56.062,-1.423,-91.540,,walk
2025-10-27T18:55:55.183947,26851,536,0.292093,-11.753435,-0.316035,4.177494,-15.971001,7.639211,-3.885401,4.217566,-7.955245,2.920699,-0.576886,1.033966,13.440000,37.559998,19.920000,-56.062,-1.423,-91.540,,walk
2025-10-27T18:55:55.235081,26902,537,0.292093,-11.753435,-0.316035,4.177494,-15.971001,7.639211,-3.885401,4.217566,-7.955245,2.920699,-0.576886,1.033966,13.440000,37.559998,19.920000,-56.062,-1.423,-91.540,,walk
2025-10-27T18:55:55.283920,26951,538,5.111920,-10.211570,1.355118,4.177494,-15.971001,7.639211,0.934426,5.759431,-6.284093,2.920699,-0.576886,1.033966,13.440000,37.559998,19.920000,-83.637,-26.393,-82.441,,walk
2025-10-27T18:55:55.334745,27001,539,5.111920,-10.211570,1.355118,4.177494,-15.971001,7.639211,0.934426,5.759431,-6.284093,2.920699,-0.576886,1.033966,16.799999,40.439999,5.640000,-54.727,-26.393,-82.441,,walk
2025-10-27T18:55:55.384359,27051,540,5.111920,-10.211570,1.355118,8.323413,-11.161136,10.572177,-3.211493,0.949566,-9.217059,1.218218,-0.455324,0.996703,16.799999,40.439999,5.640000,-54.727,-26.393,-82.441,,walk
2025-10-27T18:55:55.434528,27101,541,0.837971,-6.306626,-0.117316,8.323413,-11.161136,10.572177,-7.485442,4.854509,-10.689493,1.218218,-0.455324,0.996703,16.799999,40.439999,5.640000,-23.897,-7.567,-91.066,,walk
2025-10-27T18:55:55.484823,27151,542,0.837971,-6.306626,-0.117316,8.323413,-11.161136,10.572177,-7.485442,4.854509,-10.689493,1.218218,-0.455324,0.996703,16.799999,40.439999,5.640000,-23.897,-7.567,-91.066,,walk
2025-10-27T18:55:55.534840,27201,543,0.837971,-6.306626,-0.117316,5.507333,-7.502285,8.423024,-4.669362,1.195659,-8.540340,-1.210582,-0.863993,0.499459,20.580000,38.700001,-2.160000,0.418,-7.567,-91.066,,walk
2025-10-27T18:55:55.584971,27252,544,0.837971,-6.306626,-0.117316,5.507333,-7.502285,8.423024,-4.669362,1.195659,-8.540340,-1.210582,-0.863993,0.499459,20.580000,38.700001,-2.160000,0.418,-7.567,-91.066,,walk
2025-10-27T18:55:55.635006,27302,545,-2.044648,-11.624148,6.031293,5.507333,-7.502285,8.423024,-7.551981,-4.121863,-2.391731,-1.210582,-0.863993,0.499459,20.580000,38.700001,-2.160000,-33.247,8.874,-62.577,,walk
2025-10-27T18:55:55.684574,27351,546,-2.044648,-11.624148,6.031293,5.507333,-7.502285,8.423024,-7.551981,-4.121863,-2.391731,-1.210582,-0.863993,0.499459,20.580000,38.700001,-2.160000,-33.247,8.874,-62.577,,walk
2025-10-27T18:55:55.734691,27401,547,-2.044648,-11.624148,6.031293,2.089274,-14.226044,14.534863,-4.133922,2.601895,-8.503569,-2.212401,-1.568931,-0.781526,26.820000,34.500000,1.200000,-26.440,8.874,-62.577,,walk
2025-10-27T18:55:55.783852,27450,548,1.711854,-8.660127,1.587356,2.089274,-14.226044,14.534863,-0.377420,5.565917,-12.947507,-2.212401,-1.568931,-0.781526,26.820000,34.500000,1.200000,-25.438,-11.003,-79.613,,walk
2025-10-27T18:55:55.835004,27502,549,1.711854,-8.660127,1.587356,2.089274,-14.226044,14.534863,-0.377420,5.565917,-12.947507,-2.212401,-1.568931,-0.781526,26.820000,34.500000,1.200000,-25.438,-11.003,-79.613,,walk
2025-10-27T18:55:55.884390,27551,550,1.711854,-8.660127,1.587356,2.089274,-14.226044,14.534863,-0.377420,5.565917,-12.947507,-2.212401,-1.568931,-0.781526,26.820000,34.500000,1.200000,-25.438,-11.003,-79.613,,walk
2025-10-27T18:55:55.934565,27601,551,1.711854,-8.660127,1.587356,4.702094,-12.758697,9.979613,-2.990239,4.098570,-8.392258,-1.123839,2.049224,-0.948903,21.359999,35.700001,12.780000,-50.884,-11.003,-79.613,,walk
2025-10-27T18:55:55.985038,27652,552,1.096544,-7.793426,-1.517924,4.702094,-12.758697,9.979613,-3.605549,4.965271,-11.497537,-1.123839,2.049224,-0.948903,21.359999,35.700001,12.780000,-23.573,-7.863,-101.022,,walk
2025-10-27T18:55:56.034931,27702,553,1.096544,-7.793426,-1.517924,4.702094,-12.758697,9.979613,-3.605549,4.965271,-11.497537,-1.123839,2.049224,-0.948903,21.359999,35.700001,12.780000,-23.573,-7.863,-101.022,,walk
2025-10-27T18:55:56.084404,27751,554,1.096544,-7.793426,-1.517924,4.183444,-12.846558,6.299177,-3.086900,5.053132,-7.817101,-0.706007,0.303982,-0.824897,21.359999,35.700001,12.780000,-23.573,-7.863,-101.022,,walk
2025-10-27T18:55:56.135620,27802,555,1.096544,-7.793426,-1.517924,4.183444,-12.846558,6.299177,-3.086900,5.053132,-7.817101,-0.706007,0.303982,-0.824897,14.340000,34.619999,20.039999,-52.226,-7.863,-101.022,,walk
2025-10-27T18:55:56.184794,27851,556,-1.264138,-11.648090,1.412579,4.183444,-12.846558,6.299177,-5.447583,1.198467,-4.886598,-0.706007,0.303982,-0.824897,14.340000,34.619999,20.039999,-53.811,6.149,-83.085,,walk
2025-10-27T18:55:56.234564,27901,557,-1.264138,-11.648090,1.412579,4.183444,-12.846558,6.299177,-5.447583,1.198467,-4.886598,-0.706007,0.303982,-0.824897,14.340000,34.619999,20.039999,-53.811,6.149,-83.085,,walk
2025-10-27T18:55:56.284043,27951,558,-1.264138,-11.648090,1.412579,1.381739,-16.916492,9.249241,-2.645878,5.268402,-7.836662,3.207195,1.020527,0.976544,14.340000,34.619999,20.039999,-53.811,6.149,-83.085,,walk
2025-10-27T18:55:56.334990,28002,559,1.683124,-14.185945,-1.572991,1.381739,-16.916492,9.249241,0.301384,2.730548,-10.822231,3.207195,1.020527,0.976544,13.679999,36.360001,15.719999,-48.126,-6.726,-96.327,,walk
2025-10-27T18:55:56.383884,28050,560,1.683124,-14.185945,-1.572991,1.381739,-16.916492,9.249241,0.301384,2.730548,-10.822231,3.207195,1.020527,0.976544,13.679999,36.360001,15.719999,-48.126,-6.726,-96.327,,walk
2025-10-27T18:55:56.435312,28102,561,1.683124,-14.185945,-1.572991,2.526824,-16.521219,7.914105,-0.843700,2.335275,-9.487096,0.417985,-0.385074,1.905671,13.679999,36.360001,15.719999,-48.126,-6.726,-96.327,,walk
2025-10-27T18:55:56.484284,28151,562,1.683124,-14.185945,-1.572991,2.526824,-16.521219,7.914105,-0.843700,2.335275,-9.487096,0.417985,-0.385074,1.905671,13.679999,36.360001,15.719999,-48.126,-6.726,-96.327,,walk
2025-10-27T18:55:56.534501,28201,563,0.933739,-5.384859,-1.458069,2.526824,-16.521219,7.914105,-1.593086,11.136360,-9.372174,0.417985,-0.385074,1.905671,23.219999,34.139999,7.620000,-5.362,-9.502,-105.151,,walk
2025-10-27T18:55:56.584547,28251,564,0.933739,-5.384859,-1.458069,2.526824,-16.521219,7.914105,-1.593086,11.136360,-9.372174,0.417985,-0.385074,1.905671,23.219999,34.139999,7.620000,-5.362,-9.502,-105.151,,walk
2025-10-27T18:55:56.635420,28302,565,0.933739,-5.384859,-1.458069,3.450586,-7.791159,7.709525,-2.516847,2.406300,-9.167594,-0.908204,-1.017320,-0.426002,23.219999,34.139999,7.620000,-5.362,-9.502,-105.151,,walk
